sequence,accelx,accely,accelz,event
0,40,-80,990,0
1,50,-80,980,0
2,60,-80,980,0
3,80,-60,990,0
4,90,-60,990,0
5,80,-60,990,0
6,90,-60,990,0
7,80,-60,990,0
8,90,-60,990,0
9,80,-60,990,0
10,90,-70,990,0
11,80,-70,990,0
12,90,-60,1000,0
13,80,-60,990,0
14,90,-60,990,0
15,80,-50,990,0
16,80,-50,990,0
17,80,-50,990,0
18,80,-50,990,0
19,80,-50,990,0
20,70,-50,990,0
21,80,-50,990,0
22,80,-50,990,0
23,70,-40,990,0
24,80,-40,1000,0
25,70,-40,990,0
26,80,-50,990,0
27,70,-50,980,0
28,80,-40,990,0
29,70,-40,990,0
30,70,-40,990,0
31,70,-40,990,0
32,70,-40,980,0
33,80,-40,990,0
34,60,-40,990,0
35,70,-40,990,0
36,70,-40,990,0
37,70,-40,990,0
38,60,-40,990,0
39,60,-40,990,0
40,70,-50,990,0
41,60,-40,990,0
42,70,-40,990,0
43,50,-40,990,0
44,50,-40,990,0
45,70,-50,990,0
46,60,-40,990,0
47,60,-40,990,0
48,70,-30,980,0
49,60,-40,990,0
50,80,-40,990,0
51,40,-30,980,0
52,50,-50,1000,0
53,70,-50,980,0
54,70,-40,990,0
55,60,-40,980,0
56,50,-40,1000,0
57,20,-60,980,0
58,40,-30,990,0
59,-10,-40,990,0
60,30,-50,990,0
61,70,-30,1000,0
62,0,-20,990,0
63,50,-50,1030,0
64,20,-50,1000,0
65,30,-40,1020,0
66,10,-40,1020,0
67,80,-50,1020,0
68,110,-40,970,0
69,40,-10,970,0
70,30,-20,960,0
71,80,-10,990,0
72,60,-20,990,0
73,70,-20,1000,0
74,60,-30,1000,0
75,50,-30,990,2000
76,40,-30,990,2000
77,60,-30,990,2000
78,60,-30,990,2000
79,70,-30,980,2000
80,60,-30,980,2000
81,70,-30,990,2000
82,60,-40,990,2000
83,50,-30,990,2000
84,70,-30,1000,2000
85,70,-30,990,2000
86,60,-30,990,2000
87,70,-30,980,2000
88,70,-30,990,2000
89,70,-30,980,2000
90,70,-30,980,2000
91,60,-20,980,2000
92,30,0,980,2000
93,90,10,990,2000
94,40,60,960,2000
95,100,110,930,2000
96,90,170,920,2000
97,80,220,970,2000
98,50,240,1010,2000
99,40,260,1110,2000
100,-30,270,1200,2000
101,-40,240,1340,2000
102,-170,120,1590,2000
103,90,0,1880,2000
104,450,-210,1850,2000
105,860,-370,1640,2000
106,860,-380,1160,2000
107,1010,-320,770,2000
108,790,-300,470,2000
109,550,-290,310,2000
110,360,-250,230,2000
111,90,-230,180,2000
112,20,-160,240,2000
113,-210,-120,340,2000
114,-160,10,500,2000
115,-320,80,530,2000
116,-160,60,760,2000
117,-430,170,840,2000
118,-130,150,1030,2000
119,-380,270,1200,2000
120,-60,200,1260,2000
121,-80,170,1410,2000
122,-70,0,1430,2000
123,230,-40,1410,2000
124,10,-80,1280,2000
125,210,-140,1200,2000
126,240,-130,1160,2000
127,370,-160,1180,2000
128,180,-60,1080,2000
129,140,20,1010,2000
130,90,60,960,2000
131,160,50,960,2000
132,180,80,970,2000
133,170,50,970,2000
134,160,60,990,2000
135,160,40,990,2000
136,170,50,990,2000
137,190,60,980,2000
138,170,50,970,2000
139,200,60,980,2000
140,190,60,980,2000
141,200,60,990,2000
142,200,40,970,2000
143,190,60,960,2000
144,210,40,970,2000
145,170,40,980,2000
146,200,40,970,2000
147,100,50,970,2000
148,220,40,970,2000
149,160,90,1000,2000
150,160,40,1000,2000
151,190,50,1000,2000
152,170,70,1030,2000
153,130,50,1020,2000
154,150,30,960,2000
155,120,100,910,2000
156,140,70,970,2000
157,120,50,970,2000
158,150,80,1010,2000
159,170,40,1040,2000
160,90,50,1040,2000
161,110,50,990,2000
162,170,60,970,2000
163,180,60,970,2000
164,170,70,970,2000
165,170,50,970,2000
166,180,60,970,2000
167,170,60,970,2000
168,170,60,980,2000
169,180,50,980,2000
170,180,70,980,2000
171,190,60,990,2000
172,180,50,980,2000
173,160,70,980,2000
174,170,60,970,2000
175,180,60,980,0
176,180,60,980,0
177,180,60,980,0
178,170,60,980,0
179,170,60,970,0
180,170,60,980,0
181,170,60,980,0
182,190,50,990,0
183,180,60,980,0
184,180,60,980,0
185,180,60,980,0
186,180,60,980,0
187,170,60,970,0
188,180,60,980,0
189,180,60,980,0
190,180,70,980,0
191,180,60,980,0
192,180,70,980,0
193,180,60,980,0
194,180,60,980,0
195,180,60,970,0
196,180,60,970,0
197,180,60,970,0
198,190,60,980,0
199,190,60,980,0
200,180,60,980,0
201,180,50,980,0
202,180,60,980,0
203,190,60,980,0
204,200,60,980,0
205,190,60,970,0
206,190,70,970,0
207,190,60,980,0
208,190,70,980,0
209,200,100,980,0
210,200,80,980,0
211,200,50,980,0
212,190,60,970,0
213,200,60,980,0
214,200,60,970,0
215,190,70,970,0
216,200,60,970,0
217,190,60,980,0
218,190,60,980,0
219,200,60,980,0
220,190,50,980,0
221,200,60,970,0
222,200,60,970,0
223,200,60,980,0
224,200,60,980,0
225,200,60,970,0
226,200,50,980,0
227,200,60,970,0
228,200,60,970,0
229,200,70,970,0
230,210,60,970,0
231,200,60,980,0
232,190,60,980,0
233,200,50,980,0
234,200,50,970,0
235,200,60,970,0
236,200,60,970,0
237,200,50,980,0
238,210,50,980,0
239,200,60,980,0
240,200,60,980,0
241,200,60,970,0
242,200,60,970,0
243,200,60,970,0
244,200,50,970,0
245,200,60,970,0
246,210,50,980,0
247,210,50,980,0
248,200,60,980,0
249,200,50,980,0
250,200,60,980,0
251,210,50,970,0
252,200,50,980,0
253,210,50,980,0
254,200,50,970,0
255,200,50,980,0
256,200,50,970,0
257,210,50,980,0
258,200,50,970,0
259,200,50,970,0
260,200,50,980,0
261,200,50,980,0
262,200,50,980,0
263,200,50,970,0
264,210,50,980,0
265,200,50,970,0
266,200,50,970,0
267,200,50,980,0
268,200,50,980,0
269,200,50,970,0
270,200,50,970,0
271,200,50,970,0
272,200,60,980,0
273,200,50,970,0
274,200,50,970,0
275,210,50,980,0
276,200,50,970,0
277,200,50,970,0
278,190,50,970,0
279,200,50,970,0
280,180,50,980,0
281,170,40,970,0
282,190,60,990,0
283,170,50,980,0
284,190,40,980,0
285,170,50,980,0
286,180,50,980,0
287,180,50,980,0
288,150,50,970,0
289,190,50,980,0
290,160,50,970,0
291,190,40,980,0
292,140,70,1010,0
293,170,50,1020,0
294,150,60,1000,0
295,200,50,1010,0
296,160,50,980,0
297,210,60,950,0
298,150,60,950,0
299,190,70,970,0
300,200,60,980,0
301,200,60,970,0
302,210,50,980,0
303,190,50,980,0
304,200,60,980,0
305,200,50,980,0
306,190,60,980,0
307,200,60,970,0
308,200,50,970,0
309,200,50,970,0
310,190,50,970,0
311,190,50,970,0
312,200,50,970,0
313,190,50,980,0
314,200,50,980,0
315,190,50,970,0
316,200,60,980,0
317,200,50,980,0
318,200,50,980,0
319,200,50,970,0
320,200,60,970,0
321,200,60,970,0
322,200,60,970,0
323,200,60,980,0
324,200,60,980,0
325,190,50,980,2000
326,190,60,980,2000
327,200,60,980,2000
328,200,60,970,2000
329,200,60,980,2000
330,200,50,970,2000
331,200,60,980,2000
332,190,60,980,2000
333,200,60,980,2000
334,200,60,980,2000
335,200,50,970,2000
336,200,60,980,2000
337,190,60,970,2000
338,200,60,980,2000
339,200,60,970,2000
340,200,60,970,2000
341,200,60,980,2000
342,190,60,980,2000
343,210,60,970,2000
344,240,90,960,2000
345,210,150,930,2000
346,200,230,860,2000
347,120,310,850,2000
348,130,380,940,2000
349,160,370,1070,2000
350,90,370,1230,2000
351,50,370,1420,2000
352,200,320,1540,2000
353,230,200,1660,2000
354,420,30,1730,2000
355,590,-150,1670,2000
356,690,-220,1440,2000
357,910,-270,1130,2000
358,920,-290,740,2000
359,830,-330,470,2000
360,550,-340,280,2000
361,350,-250,180,2000
362,150,-130,90,2000
363,-40,-40,70,2000
364,-110,40,210,2000
365,-270,110,350,2000
366,-270,180,700,2000
367,-310,200,770,2000
368,-250,320,1010,2000
369,-210,290,970,2000
370,50,340,1330,2000
371,-110,360,1290,2000
372,200,240,1470,2000
373,120,180,1440,2000
374,320,140,1490,2000
375,230,10,1280,2000
376,500,-130,1230,2000
377,450,-110,1130,2000
378,490,-110,1100,2000
379,460,-100,1030,2000
380,350,-40,960,2000
381,380,20,930,2000
382,300,70,890,2000
383,350,110,920,2000
384,290,120,930,2000
385,330,130,960,2000
386,310,130,970,2000
387,300,130,970,2000
388,340,120,960,2000
389,310,120,950,2000
390,300,120,960,2000
391,300,110,950,2000
392,290,110,930,2000
393,340,110,950,2000
394,320,130,960,2000
395,320,110,950,2000
396,350,110,950,2000
397,320,110,950,2000
398,320,100,930,2000
399,320,100,930,2000
400,290,140,950,2000
401,280,90,940,2000
402,240,140,980,2000
403,320,120,960,2000
404,250,110,960,2000
405,270,120,970,2000
406,360,140,1030,2000
407,240,80,970,2000
408,320,120,890,2000
409,290,140,890,2000
410,240,110,910,2000
411,250,110,970,2000
412,250,150,980,2000
413,310,100,1000,2000
414,330,110,970,2000
415,300,110,960,2000
416,330,110,920,2000
417,340,110,920,2000
418,340,110,940,2000
419,310,110,930,2000
420,340,110,950,2000
421,330,110,960,2000
422,310,110,950,2000
423,330,100,950,2000
424,340,100,950,2000
425,330,100,950,0
426,320,100,960,0
427,300,100,950,0
428,330,100,950,0
429,340,100,950,0
430,320,100,940,0
431,330,100,950,0
432,340,100,960,0
433,340,100,960,0
434,330,100,950,0
435,330,100,960,0
436,340,100,960,0
437,340,100,960,0
438,330,100,950,0
439,330,100,950,0
440,340,100,950,0
441,310,90,950,0
442,330,100,950,0
443,340,100,950,0
444,330,100,950,0
445,320,100,950,0
446,330,90,960,0
447,330,100,960,0
448,340,100,950,0
449,330,90,960,0
450,310,90,950,0
451,340,100,950,0
452,320,100,950,0
453,340,100,950,0
454,290,100,950,0
455,330,90,950,0
456,340,90,960,0
457,320,90,960,0
458,340,100,950,0
459,330,100,940,0
460,330,100,950,0
461,330,100,940,0
462,330,100,950,0
463,340,100,950,0
464,330,100,950,0
465,340,100,960,0
466,330,100,950,0
467,330,90,950,0
468,320,90,950,0
469,340,90,940,0
470,340,100,950,0
471,340,90,960,0
472,340,90,950,0
473,330,90,960,0
474,330,100,960,0
475,330,90,950,0
476,330,90,950,0
477,330,90,950,0
478,330,90,950,0
479,320,90,950,0
480,330,80,950,0
481,330,90,960,0
482,320,90,960,0
483,330,90,960,0
484,320,100,950,0
485,330,90,960,0
486,330,90,950,0
487,320,80,950,0
488,330,90,960,0
489,330,90,950,0
490,320,90,950,0
491,320,90,960,0
492,330,90,950,0
493,330,90,950,0
494,320,90,960,0
495,320,90,950,0
496,330,90,950,0
497,330,90,950,0
498,320,90,950,0
499,330,90,960,0
500,320,90,950,0
501,340,90,950,0
502,320,90,950,0
503,330,90,960,0
504,330,90,960,0
505,330,90,960,0
506,320,90,960,0
507,320,90,950,0
508,320,90,950,0
509,320,90,960,0
510,320,90,960,0
511,320,90,950,0
512,320,90,950,0
513,320,90,960,0
514,320,90,960,0
515,310,90,950,0
516,330,90,960,0
517,310,90,950,0
518,330,90,960,0
519,320,100,960,0
520,320,90,960,0
521,330,90,960,0
522,320,90,950,0
523,320,90,950,0
524,330,90,950,0
525,330,90,950,0
526,320,90,960,0
527,320,90,960,0
528,320,90,950,0
529,330,90,960,0
530,330,90,960,0
531,320,90,960,0
532,320,90,950,0
533,330,90,950,0
534,330,80,950,0
535,320,90,950,0
536,320,90,950,0
537,330,90,960,0
538,320,80,960,0
539,330,80,950,0
540,320,90,960,0
541,320,90,950,0
542,330,90,960,0
543,320,90,950,0
544,330,90,950,0
545,330,80,960,0
546,320,90,950,0
547,320,90,950,0
548,320,80,960,0
549,310,80,960,0
550,340,80,960,0
551,330,90,950,0
552,330,90,960,0
553,330,90,950,0
554,330,90,950,0
555,330,90,960,0
556,330,80,950,0
557,330,90,950,0
558,330,90,950,0
559,330,80,950,0
560,320,90,960,0
561,320,80,960,0
562,330,80,960,0
563,330,80,960,0
564,320,80,950,0
565,330,80,950,0
566,330,80,950,0
567,330,80,950,0
568,330,90,950,0
569,330,80,950,0
570,320,90,950,0
571,340,90,960,0
572,320,80,960,0
573,330,90,960,0
574,330,80,960,0
575,320,80,960,0
576,340,90,950,0
577,340,80,950,0
578,320,90,950,0
579,330,80,950,0
580,340,80,960,0
581,320,80,960,0
582,330,80,960,0
583,330,80,960,0
584,330,90,950,0
585,340,90,950,0
586,330,80,950,0
587,330,80,960,0
588,340,90,950,0
589,330,90,960,0
590,330,80,960,0
591,330,80,950,0
592,330,80,960,0
593,330,80,950,0
594,330,80,950,0
595,330,80,960,0
596,330,80,960,0
597,330,80,950,0
598,340,80,950,0
599,320,80,950,0
600,330,80,950,0
601,340,80,960,0
602,320,70,950,0
603,310,80,950,0
604,330,80,970,0
605,300,70,960,0
606,300,80,960,0
607,300,70,950,0
608,320,90,960,0
609,300,60,950,0
610,310,90,960,0
611,280,80,960,0
612,300,80,960,0
613,290,70,960,0
614,310,80,960,0
615,300,80,960,0
616,330,80,960,0
617,290,70,960,0
618,300,90,950,0
619,280,80,960,0
620,300,90,940,0
621,270,80,960,0
622,260,100,950,0
623,330,90,970,0
624,280,70,970,0
625,290,70,980,0
626,290,70,980,0
627,270,100,970,0
628,350,60,970,0
629,330,90,950,0
630,270,80,920,0
631,330,90,940,0
632,330,80,940,0
633,340,90,940,0
634,350,80,950,0
635,330,90,960,0
636,350,80,960,0
637,330,80,960,0
638,340,90,960,0
639,350,80,950,0
640,330,80,940,0
641,340,70,950,0
642,340,70,950,0
643,340,80,950,0
644,350,80,950,0
645,330,70,950,0
646,340,80,950,0
647,340,70,950,0
648,340,80,950,0
649,350,80,960,0
650,340,70,960,2000
651,340,70,960,2000
652,340,80,950,2000
653,340,70,950,2000
654,350,80,950,2000
655,340,70,950,2000
656,350,80,950,2000
657,340,80,950,2000
658,340,80,950,2000
659,340,70,950,2000
660,330,90,950,2000
661,310,90,950,2000
662,350,70,950,2000
663,340,70,950,2000
664,330,80,950,2000
665,350,70,950,2000
666,340,70,950,2000
667,340,80,940,2000
668,350,100,940,2000
669,330,130,960,2000
670,260,230,850,2000
671,220,290,840,2000
672,100,370,890,2000
673,190,430,1040,2000
674,250,420,1350,2000
675,20,370,1590,2000
676,60,370,1810,2000
677,310,220,1950,2000
678,460,100,1880,2000
679,1170,10,1540,2000
680,1320,-80,1050,2000
681,1070,-180,560,2000
682,780,-240,240,2000
683,430,-160,10,2000
684,210,-150,-60,2000
685,20,-80,-100,2000
686,-70,-10,0,2000
687,-240,20,230,2000
688,-310,110,550,2000
689,-250,160,760,2000
690,-300,300,990,2000
691,-120,260,1090,2000
692,-110,330,1250,2000
693,-10,240,1210,2000
694,180,240,1390,2000
695,50,190,1450,2000
696,340,120,1440,2000
697,350,-10,1270,2000
698,460,-140,1200,2000
699,440,-160,1080,2000
700,560,-160,1070,2000
701,540,-160,1000,2000
702,460,-100,970,2000
703,460,-50,930,2000
704,380,-10,890,2000
705,380,70,910,2000
706,420,90,920,2000
707,360,110,940,2000
708,360,110,950,2000
709,360,110,950,2000
710,370,100,960,2000
711,390,90,940,2000
712,390,90,930,2000
713,400,90,940,2000
714,420,100,940,2000
715,410,90,920,2000
716,390,100,920,2000
717,410,90,910,2000
718,410,100,920,2000
719,420,110,920,2000
720,420,110,910,2000
721,430,100,920,2000
722,400,100,890,2000
723,440,100,900,2000
724,370,110,920,2000
725,370,110,910,2000
726,340,100,940,2000
727,410,110,930,2000
728,370,110,960,2000
729,420,100,940,2000
730,360,100,950,2000
731,360,140,960,2000
732,360,120,960,2000
733,430,90,900,2000
734,350,180,850,2000
735,430,40,910,2000
736,350,90,880,2000
737,320,150,970,2000
738,390,140,1000,2000
739,390,120,970,2000
740,450,50,890,2000
741,430,110,870,2000
742,380,110,890,2000
743,410,110,920,2000
744,420,110,870,2000
745,450,110,880,2000
746,430,110,920,2000
747,430,100,920,2000
748,420,100,920,2000
749,450,100,920,2000
750,430,110,910,0
751,430,110,900,0
752,440,100,900,0
753,430,110,910,0
754,430,100,900,0
755,450,100,910,0
756,420,100,890,0
757,440,100,890,0
758,440,100,900,0
759,440,100,910,0
760,440,100,920,0
761,430,100,910,0
762,430,100,900,0
763,430,100,910,0
764,430,100,900,0
765,440,100,900,0
766,430,100,910,0
767,430,100,910,0
768,430,100,910,0
769,430,100,900,0
770,430,100,900,0
771,430,100,900,0
772,440,100,910,0
773,430,100,910,0
774,440,100,910,0
775,440,100,920,0
776,430,100,910,0
777,440,90,910,0
778,430,100,910,0
779,440,100,890,0
780,440,100,900,0
781,440,100,900,0
782,440,100,900,0
783,440,100,910,0
784,430,100,910,0
785,440,100,900,0
786,440,100,910,0
787,430,100,900,0
788,440,100,900,0
789,430,100,910,0
790,430,100,900,0
791,440,90,900,0
792,440,100,910,0
793,440,100,910,0
794,430,90,910,0
795,430,100,900,0
796,440,100,900,0
797,430,100,910,0
798,430,90,910,0
799,440,100,910,0
800,430,100,910,0
801,430,100,900,0
802,430,90,900,0
803,440,100,900,0
804,430,100,910,0
805,440,100,910,0
806,440,90,910,0
807,430,100,910,0
808,440,100,900,0
809,430,90,900,0
810,440,90,900,0
811,440,100,900,0
812,430,90,900,0
813,440,100,910,0
814,440,90,910,0
815,440,90,910,0
816,440,100,900,0
817,440,90,910,0
818,440,90,900,0
819,430,100,900,0
820,440,90,900,0
821,440,90,910,0
822,440,90,910,0
823,440,90,910,0
824,440,90,900,0
825,440,90,900,0
826,440,90,910,0
827,430,90,910,0
828,430,90,900,0
829,440,90,900,0
830,430,90,910,0
831,430,90,910,0
832,430,90,910,0
833,440,90,910,0
834,440,90,910,0
835,430,90,910,0
836,430,90,910,0
837,440,90,910,0
838,430,80,910,0
839,430,90,900,0
840,430,90,910,0
841,430,90,910,0
842,430,80,910,0
843,440,90,910,0
844,440,80,910,0
845,430,80,900,0
846,430,90,910,0
847,430,90,910,0
848,440,80,910,0
849,430,80,910,0
850,430,90,910,0
851,440,90,910,0
852,440,80,900,0
853,430,90,910,0
854,430,90,900,0
855,430,80,900,0
856,430,80,910,0
857,440,80,910,0
858,430,80,910,0
859,430,80,910,0
860,430,80,920,0
861,430,80,910,0
862,430,80,910,0
863,420,90,910,0
864,440,80,910,0
865,430,90,920,0
866,430,90,910,0
867,430,80,920,0
868,420,90,910,0
869,420,80,920,0
870,430,80,920,0
871,410,80,910,0
872,420,90,920,0
873,420,70,920,0
874,420,90,910,0
875,390,90,920,0
876,420,90,920,0
877,410,80,930,0
878,420,80,930,0
879,410,60,910,0
880,400,100,900,0
881,430,90,940,0
882,420,70,910,0
883,380,90,930,0
884,400,100,930,0
885,410,60,930,0
886,420,70,930,0
887,390,90,960,0
888,390,70,960,0
889,440,70,910,0
890,380,90,870,0
891,440,100,910,0
892,430,90,900,0
893,440,90,890,0
894,420,80,900,0
895,430,80,920,0
896,430,80,910,0
897,430,80,920,0
898,430,80,910,0
899,440,90,920,0
900,440,80,910,2000
901,430,80,910,2000
902,430,80,910,2000
903,440,80,920,2000
904,430,80,910,2000
905,430,70,900,2000
906,430,80,910,2000
907,430,80,910,2000
908,430,70,910,2000
909,430,80,920,2000
910,420,70,920,2000
911,430,70,910,2000
912,430,70,910,2000
913,430,70,910,2000
914,430,80,910,2000
915,430,80,910,2000
916,430,80,920,2000
917,420,80,910,2000
918,430,70,900,2000
919,430,80,900,2000
920,440,80,890,2000
921,440,100,890,2000
922,460,90,880,2000
923,380,170,880,2000
924,310,220,920,2000
925,220,280,950,2000
926,200,380,1000,2000
927,330,360,1230,2000
928,250,240,1500,2000
929,230,170,1600,2000
930,530,90,1660,2000
931,520,-100,1620,2000
932,450,-210,1490,2000
933,620,-250,1340,2000
934,580,-300,990,2000
935,960,-340,710,2000
936,790,-330,350,2000
937,630,-290,180,2000
938,280,-140,30,2000
939,-10,-10,-50,2000
940,-80,100,40,2000
941,-290,110,200,2000
942,-290,110,560,2000
943,-290,180,820,2000
944,-240,120,1000,2000
945,0,250,1140,2000
946,-150,200,1280,2000
947,80,230,1400,2000
948,100,150,1490,2000
949,170,110,1350,2000
950,440,10,1360,2000
951,280,-10,1200,2000
952,430,-30,1180,2000
953,370,-60,1070,2000
954,490,-120,1060,2000
955,490,-70,1010,2000
956,450,-10,970,2000
957,450,20,950,2000
958,400,30,900,2000
959,450,40,880,2000
960,460,50,880,2000
961,420,90,890,2000
962,380,110,920,2000
963,370,130,940,2000
964,430,130,950,2000
965,380,140,930,2000
966,420,120,920,2000
967,430,120,920,2000
968,420,130,920,2000
969,430,130,920,2000
970,460,120,930,2000
971,440,140,920,2000
972,450,130,890,2000
973,450,110,870,2000
974,450,110,870,2000
975,440,120,890,2000
976,450,110,880,2000
977,430,120,890,2000
978,410,150,870,2000
979,380,140,900,2000
980,450,110,960,2000
981,410,110,920,2000
982,410,110,940,2000
983,410,110,960,2000
984,450,140,950,2000
985,400,100,890,2000
986,410,140,800,2000
987,430,100,870,2000
988,400,100,900,2000
989,340,130,940,2000
990,430,160,980,2000
991,400,100,960,2000
992,460,100,880,2000
993,440,110,880,2000
994,460,110,880,2000
995,450,120,870,2000
996,450,120,870,2000
997,460,110,870,2000
998,460,120,890,2000
999,460,110,900,2000
1000,460,110,890,0
1001,460,110,890,0
1002,460,110,890,0
1003,460,110,890,0
1004,460,110,870,0
1005,460,110,880,0
1006,460,110,880,0
1007,460,110,880,0
1008,460,110,880,0
1009,460,110,880,0
1010,460,110,890,0
1011,460,110,880,0
1012,460,110,880,0
1013,460,110,880,0
1014,460,100,880,0
1015,460,110,880,0
1016,460,110,890,0
1017,460,100,890,0
1018,460,110,870,0
1019,460,110,880,0
1020,460,110,880,0
1021,460,100,870,0
1022,460,110,880,0
1023,460,110,880,0
1024,460,110,880,0
1025,460,110,890,0
1026,460,110,880,0
1027,460,110,880,0
1028,460,110,880,0
1029,460,110,880,0
1030,460,110,880,0
1031,460,110,880,0
1032,460,110,890,0
1033,460,110,890,0
1034,460,110,880,0
1035,460,110,880,0
1036,460,110,880,0
1037,460,110,880,0
1038,460,110,880,0
1039,460,110,870,0
1040,460,100,880,0
1041,460,110,880,0
1042,460,100,880,0
1043,460,100,880,0
1044,460,100,880,0
1045,460,110,880,0
1046,460,110,880,0
1047,460,100,880,0
1048,460,100,880,0
1049,460,100,880,0
1050,460,100,880,0
1051,460,100,880,0
1052,460,100,880,0
1053,460,100,880,0
1054,460,100,880,0
1055,460,100,880,0
1056,460,100,880,0
1057,460,100,880,0
1058,460,100,880,0
1059,460,100,880,0
1060,460,100,880,0
1061,460,100,870,0
1062,460,100,880,0
1063,460,100,870,0
1064,460,100,880,0
1065,460,100,880,0
1066,460,100,880,0
1067,460,100,880,0
1068,460,100,880,0
1069,460,100,880,0
1070,460,100,880,0
1071,460,100,880,0
1072,460,100,880,0
1073,460,100,880,0
1074,460,100,880,0
1075,460,100,880,0
1076,460,100,890,0
1077,460,100,890,0
1078,460,100,880,0
1079,460,100,880,0
1080,460,100,880,0
1081,460,100,870,0
1082,460,100,880,0
1083,460,100,890,0
1084,460,100,880,0
1085,460,100,880,0
1086,460,100,880,0
1087,460,100,880,0
1088,460,100,880,0
1089,460,100,890,0
1090,460,100,890,0
1091,460,100,880,0
1092,460,100,880,0
1093,460,100,880,0
1094,460,100,880,0
1095,460,90,880,0
1096,460,100,880,0
1097,460,100,880,0
1098,460,100,880,0
1099,460,100,870,0
1100,460,100,880,0
1101,460,100,890,0
1102,460,90,880,0
1103,460,100,880,0
1104,460,100,880,0
1105,460,100,880,0
1106,460,90,870,0
1107,460,100,880,0
1108,460,90,880,0
1109,460,90,880,0
1110,460,90,890,0
1111,460,90,890,0
1112,460,90,890,0
1113,460,90,880,0
1114,460,100,890,0
1115,460,90,880,0
1116,460,90,870,0
1117,460,90,890,0
1118,460,90,890,0
1119,460,90,880,0
1120,460,90,890,0
1121,460,90,890,0
1122,460,90,880,0
1123,460,90,890,0
1124,460,90,890,0
1125,460,90,890,0
1126,460,80,880,0
1127,460,90,890,0
1128,460,90,890,0
1129,460,80,880,0
1130,460,90,880,0
1131,460,80,890,0
1132,460,80,890,0
1133,460,80,880,0
1134,460,80,880,0
1135,460,80,870,0
1136,470,70,880,0
1137,440,130,900,0
1138,520,60,910,0
1139,410,90,890,0
1140,480,100,890,0
1141,460,110,870,0
1142,470,110,880,0
1143,460,100,880,0
1144,460,70,880,0
1145,460,40,860,0
1146,490,50,870,0
1147,470,60,870,0
1148,490,70,900,0
1149,470,90,890,0
1150,460,90,880,0
1151,470,100,880,0
1152,470,90,870,0
1153,470,80,870,0
1154,470,70,870,0
1155,460,70,880,0
1156,470,60,870,0
1157,460,60,870,0
1158,460,50,870,0
1159,460,60,880,0
1160,470,50,880,0
1161,480,60,880,0
1162,470,70,880,0
1163,470,80,880,0
1164,470,90,880,0
1165,470,90,870,0
1166,470,100,870,0
1167,470,100,880,0
1168,460,110,890,0
1169,460,110,900,0
1170,460,100,890,0
1171,460,100,850,0
1172,420,110,800,0
1173,510,90,890,0
1174,490,50,930,0
1175,460,50,880,0
1176,460,90,870,0
1177,470,90,880,0
1178,470,100,890,0
1179,480,90,880,0
1180,460,90,880,0
1181,460,80,870,0
1182,460,60,880,0
1183,460,70,870,0
1184,440,100,880,0
1185,440,70,890,0
1186,470,80,910,0
1187,420,80,900,0
1188,450,80,930,0
1189,420,60,940,0
1190,390,80,930,0
1191,420,80,930,0
1192,400,80,910,0
1193,390,110,940,0
1194,450,90,970,0
1195,350,50,960,0
1196,450,100,880,0
1197,410,60,870,0
1198,450,90,860,0
1199,430,80,860,0
1200,450,80,860,0
1201,460,90,870,0
1202,460,80,900,0
1203,460,80,900,0
1204,460,90,910,0
1205,460,80,900,0
1206,470,90,890,0
1207,460,100,880,0
1208,460,80,880,0
1209,460,80,880,0
1210,460,90,870,0
1211,470,90,890,0
1212,460,80,890,0
1213,460,80,890,0
1214,460,90,880,0
1215,460,80,890,0
1216,460,90,880,0
1217,460,80,890,0
1218,460,80,880,0
1219,460,80,880,0
1220,460,80,880,0
1221,460,80,880,0
1222,460,80,890,0
1223,460,90,890,0
1224,460,80,880,0
1225,460,90,890,2000
1226,460,80,890,2000
1227,460,80,890,2000
1228,460,80,880,2000
1229,460,80,890,2000
1230,460,80,880,2000
1231,460,80,890,2000
1232,460,80,890,2000
1233,460,80,880,2000
1234,460,80,890,2000
1235,460,80,890,2000
1236,460,80,890,2000
1237,460,80,880,2000
1238,460,80,890,2000
1239,460,80,880,2000
1240,460,80,880,2000
1241,460,80,890,2000
1242,460,70,890,2000
1243,460,70,880,2000
1244,460,80,870,2000
1245,480,70,860,2000
1246,430,190,850,2000
1247,370,250,820,2000
1248,240,360,850,2000
1249,160,400,940,2000
1250,250,460,1180,2000
1251,360,420,1540,2000
1252,230,380,1800,2000
1253,580,300,1930,2000
1254,770,130,1800,2000
1255,1140,10,1430,2000
1256,1240,-180,1040,2000
1257,1030,-250,560,2000
1258,960,-300,280,2000
1259,690,-240,80,2000
1260,440,-240,-40,2000
1261,290,-130,-100,2000
1262,0,-50,-120,2000
1263,0,30,90,2000
1264,-260,110,260,2000
1265,-140,220,650,2000
1266,-210,370,920,2000
1267,-150,370,1000,2000
1268,-20,460,1000,2000
1269,210,420,1270,2000
1270,240,460,1260,2000
1271,330,360,1520,2000
1272,290,370,1470,2000
1273,760,130,1470,2000
1274,390,-20,1220,2000
1275,780,-110,1170,2000
1276,550,-180,1010,2000
1277,620,-150,990,2000
1278,540,-120,920,2000
1279,460,-30,910,2000
1280,460,20,900,2000
1281,400,100,890,2000
1282,410,130,900,2000
1283,420,160,900,2000
1284,400,170,910,2000
1285,410,130,920,2000
1286,410,130,930,2000
1287,450,110,930,2000
1288,420,130,900,2000
1289,450,160,910,2000
1290,460,130,880,2000
1291,460,140,880,2000
1292,460,130,880,2000
1293,450,160,880,2000
1294,460,140,880,2000
1295,460,160,900,2000
1296,460,140,870,2000
1297,450,170,880,2000
1298,460,90,870,2000
1299,390,170,880,2000
1300,450,150,920,2000
1301,370,150,900,2000
1302,460,140,900,2000
1303,400,160,940,2000
1304,410,160,950,2000
1305,420,170,950,2000
1306,430,120,880,2000
1307,430,170,780,2000
1308,450,160,870,2000
1309,450,110,900,2000
1310,420,190,920,2000
1311,430,130,950,2000
1312,410,160,950,2000
1313,460,120,930,2000
1314,440,160,890,2000
1315,450,160,880,2000
1316,460,160,870,2000
1317,460,150,850,2000
1318,460,150,850,2000
1319,460,130,870,2000
1320,460,130,880,2000
1321,460,130,880,2000
1322,460,130,870,2000
1323,460,130,870,2000
1324,460,140,860,2000
1325,470,130,860,0
1326,460,120,870,0
1327,460,120,870,0
1328,480,120,870,0
1329,460,130,880,0
1330,480,120,880,0
1331,470,120,870,0
1332,470,120,870,0
1333,470,120,860,0
1334,460,110,860,0
1335,470,120,860,0
1336,480,110,860,0
1337,470,120,870,0
1338,470,110,870,0
1339,470,110,870,0
1340,480,110,870,0
1341,470,110,870,0
1342,470,120,870,0
1343,480,120,870,0
1344,480,120,870,0
1345,470,110,860,0
1346,470,110,870,0
1347,480,110,870,0
1348,470,110,860,0
1349,480,110,870,0
1350,490,110,870,0
1351,470,110,880,0
1352,470,110,870,0
1353,470,110,860,0
1354,470,110,870,0
1355,480,110,860,0
1356,470,110,870,0
1357,470,110,860,0
1358,470,110,870,0
1359,470,110,870,0
1360,470,110,870,0
1361,470,110,860,0
1362,470,110,870,0
1363,470,100,860,0
1364,470,110,870,0
1365,470,110,870,0
1366,470,110,870,0
1367,470,110,860,0
1368,470,110,860,0
1369,470,110,870,0
1370,470,110,870,0
1371,470,110,870,0
1372,470,110,870,0
1373,470,110,870,0
1374,470,110,870,0
1375,470,110,870,0
1376,470,110,860,0
1377,480,110,870,0
1378,470,110,870,0
1379,480,110,870,0
1380,470,110,860,0
1381,480,110,860,0
1382,470,110,870,0
1383,470,110,870,0
1384,470,110,860,0
1385,470,110,870,0
1386,470,110,870,0
1387,470,110,860,0
1388,470,110,870,0
1389,470,110,870,0
1390,470,110,870,0
1391,470,110,870,0
1392,470,110,870,0
1393,470,110,870,0
1394,470,110,870,0
1395,470,110,870,0
1396,470,110,870,0
1397,470,110,870,0
1398,470,110,870,0
1399,470,110,870,0
1400,470,110,870,0
1401,470,100,870,0
1402,470,110,860,0
1403,470,110,870,0
1404,470,110,870,0
1405,470,110,870,0
1406,470,110,870,0
1407,470,110,870,0
1408,470,110,870,0
1409,470,100,870,0
1410,470,110,860,0
1411,470,110,860,0
1412,470,110,870,0
1413,470,110,870,0
1414,480,110,870,0
1415,470,110,870,0
1416,470,110,870,0
1417,470,110,870,0
1418,470,110,870,0
1419,470,110,860,0
1420,480,110,870,0
1421,470,110,870,0
1422,470,110,870,0
1423,480,110,870,0
1424,470,110,870,0
1425,470,110,870,0
1426,470,110,870,0
1427,470,110,870,0
1428,480,110,870,0
1429,470,110,860,0
1430,470,100,870,0
1431,470,110,870,0
1432,470,100,870,0
1433,470,100,870,0
1434,470,110,870,0
1435,470,110,870,0
1436,470,110,870,0
1437,470,110,870,0
1438,470,110,870,0
1439,470,100,870,0
1440,470,110,870,0
1441,470,110,870,0
1442,470,110,870,0
1443,470,110,870,0
1444,470,110,870,0
1445,470,110,870,0
1446,470,110,870,0
1447,470,110,870,0
1448,470,100,870,0
1449,470,100,870,0
1450,470,110,870,0
1451,470,110,870,0
1452,470,110,870,0
1453,470,110,870,0
1454,470,100,870,0
1455,470,100,870,0
1456,470,110,880,0
1457,470,110,870,0
1458,470,100,870,0
1459,470,110,870,0
1460,470,110,860,0
1461,470,110,870,0
1462,470,110,870,0
1463,470,110,870,0
1464,470,110,870,0
1465,470,110,870,0
1466,470,110,870,0
1467,470,110,870,0
1468,470,110,870,0
1469,470,110,870,0
1470,470,100,870,0
1471,470,100,870,0
1472,470,110,870,0
1473,460,100,870,0
1474,460,100,870,0
1475,470,100,870,0
1476,460,110,870,0
1477,470,110,870,0
1478,460,110,880,0
1479,460,110,890,0
1480,460,110,890,0
1481,460,100,890,0
1482,450,120,900,0
1483,450,90,910,0
1484,430,110,890,0
1485,440,100,870,0
1486,460,100,910,0
1487,420,90,910,0
1488,450,90,890,0
1489,430,110,900,0
1490,430,110,920,0
1491,430,110,930,0
1492,420,70,920,0
1493,460,100,870,0
1494,430,110,850,0
1495,460,110,880,0
1496,460,100,870,0
1497,460,100,870,0
1498,460,110,880,0
1499,480,100,880,0
1500,460,110,880,2000
1501,470,110,880,2000
1502,470,100,880,2000
1503,460,100,870,2000
1504,470,100,870,2000
1505,460,100,870,2000
1506,460,100,880,2000
1507,470,100,870,2000
1508,470,100,880,2000
1509,470,100,870,2000
1510,470,100,870,2000
1511,470,100,870,2000
1512,460,100,880,2000
1513,470,100,870,2000
1514,460,100,870,2000
1515,460,100,870,2000
1516,470,100,870,2000
1517,470,100,870,2000
1518,460,100,870,2000
1519,470,100,870,2000
1520,470,100,870,2000
1521,470,110,870,2000
1522,510,100,850,2000
1523,480,110,810,2000
1524,460,150,790,2000
1525,370,240,810,2000
1526,250,350,910,2000
1527,320,420,1030,2000
1528,460,440,1340,2000
1529,350,380,1620,2000
1530,550,340,1860,2000
1531,750,240,1790,2000
1532,1150,80,1550,2000
1533,1190,-50,1160,2000
1534,1070,-130,820,2000
1535,920,-160,490,2000
1536,690,-170,220,2000
1537,520,-230,30,2000
1538,250,-150,-50,2000
1539,80,-20,-100,2000
1540,-30,0,30,2000
1541,-250,120,290,2000
1542,-130,150,570,2000
1543,-180,270,890,2000
1544,-80,270,980,2000
1545,100,360,1090,2000
1546,330,310,1330,2000
1547,290,330,1270,2000
1548,510,220,1450,2000
1549,460,190,1370,2000
1550,660,60,1360,2000
1551,590,0,1170,2000
1552,620,-80,1040,2000
1553,720,-130,1010,2000
1554,570,-90,920,2000
1555,680,-100,910,2000
1556,560,-40,860,2000
1557,480,-10,830,2000
1558,540,10,820,2000
1559,460,50,840,2000
1560,470,100,840,2000
1561,470,110,870,2000
1562,460,110,860,2000
1563,490,120,880,2000
1564,500,110,880,2000
1565,520,100,880,2000
1566,510,100,880,2000
1567,520,100,870,2000
1568,510,110,850,2000
1569,530,100,850,2000
1570,520,100,850,2000
1571,530,100,850,2000
1572,530,100,860,2000
1573,530,110,850,2000
1574,530,110,840,2000
1575,540,110,840,2000
1576,540,110,830,2000
1577,530,100,840,2000
1578,530,110,840,2000
1579,560,100,840,2000
1580,510,90,830,2000
1581,520,110,810,2000
1582,470,110,870,2000
1583,500,110,870,2000
1584,520,110,860,2000
1585,460,140,900,2000
1586,480,130,930,2000
1587,580,50,910,2000
1588,490,100,790,2000
1589,500,110,780,2000
1590,460,150,870,2000
1591,540,80,840,2000
1592,420,160,910,2000
1593,470,120,960,2000
1594,420,130,960,2000
1595,540,110,850,2000
1596,480,130,790,2000
1597,520,110,810,2000
1598,490,110,840,2000
1599,520,120,830,2000
1600,540,120,840,0
1601,520,110,860,0
1602,550,110,850,0
1603,540,110,850,0
1604,530,110,850,0
1605,530,110,840,0
1606,530,110,840,0
1607,530,110,830,0
1608,530,100,820,0
1609,560,110,830,0
1610,540,110,830,0
1611,540,110,840,0
1612,550,100,830,0
1613,540,100,850,0
1614,540,110,840,0
1615,540,110,820,0
1616,550,100,830,0
1617,550,110,830,0
1618,550,100,820,0
1619,560,100,830,0
1620,540,110,830,0
1621,560,100,830,0
1622,550,110,840,0
1623,550,110,840,0
1624,550,100,830,0
1625,540,100,830,0
1626,620,100,830,0
1627,560,110,830,0
1628,550,100,830,0
1629,560,100,820,0
1630,560,110,820,0
1631,560,100,820,0
1632,560,100,820,0
1633,570,100,820,0
1634,560,100,820,0
1635,550,110,810,0
1636,550,100,820,0
1637,570,100,830,0
1638,560,100,830,0
1639,560,100,840,0
1640,550,100,830,0
1641,560,100,820,0
1642,560,100,820,0
1643,560,100,820,0
1644,560,100,810,0
1645,550,100,830,0
1646,560,100,830,0
1647,570,100,830,0
1648,560,100,830,0
1649,560,100,830,0
1650,550,100,830,0
1651,550,100,830,0
1652,560,90,850,0
1653,560,90,850,0
1654,560,90,830,0
1655,560,90,840,0
1656,550,100,820,0
1657,560,100,800,0
1658,550,100,790,0
1659,550,100,800,0
1660,550,100,830,0
1661,560,100,850,0
1662,560,90,850,0
1663,570,90,850,0
1664,560,100,850,0
1665,560,90,830,0
1666,550,90,820,0
1667,560,90,820,0
1668,560,90,820,0
1669,550,90,820,0
1670,560,100,840,0
1671,560,100,840,0
1672,560,90,830,0
1673,560,90,830,0
1674,560,100,840,0
1675,560,100,830,0
1676,560,90,820,0
1677,570,90,830,0
1678,560,100,840,0
1679,550,90,830,0
1680,550,90,830,0
1681,560,100,820,0
1682,540,100,840,0
1683,550,90,840,0
1684,550,90,830,0
1685,540,100,840,0
1686,540,90,850,0
1687,530,90,840,0
1688,540,90,850,0
1689,540,90,850,0
1690,540,80,850,0
1691,550,90,840,0
1692,530,90,830,0
1693,540,100,830,0
1694,550,100,830,0
1695,530,90,840,0
1696,540,90,830,0
1697,540,90,840,0
1698,540,90,850,0
1699,550,80,840,0
1700,530,90,850,0
1701,530,90,850,0
1702,530,80,850,0
1703,520,100,840,0
1704,570,80,860,0
1705,480,100,870,0
1706,510,80,850,0
1707,470,110,840,0
1708,550,90,880,0
1709,490,70,870,0
1710,480,100,870,0
1711,470,100,900,0
1712,500,70,880,0
1713,550,100,810,0
1714,520,110,810,0
1715,540,100,830,0
1716,550,90,830,0
1717,540,90,810,0
1718,560,90,840,0
1719,560,80,850,0
1720,560,90,850,0
1721,560,90,850,0
1722,560,90,840,0
1723,550,90,830,0
1724,550,90,820,0
1725,560,80,840,2000
1726,550,90,840,2000
1727,560,70,840,2000
1728,560,80,830,2000
1729,550,80,830,2000
1730,550,80,840,2000
1731,560,90,830,2000
1732,550,90,840,2000
1733,560,80,850,2000
1734,540,80,840,2000
1735,550,90,830,2000
1736,570,80,840,2000
1737,550,90,830,2000
1738,560,90,840,2000
1739,550,90,840,2000
1740,530,90,800,2000
1741,560,100,790,2000
1742,590,120,800,2000
1743,470,280,780,2000
1744,370,360,780,2000
1745,230,380,910,2000
1746,300,450,1160,2000
1747,570,360,1600,2000
1748,560,320,1820,2000
1749,910,220,1760,2000
1750,1070,70,1480,2000
1751,1090,-80,1090,2000
1752,1080,-150,760,2000
1753,930,-220,510,2000
1754,680,-300,360,2000
1755,470,-250,220,2000
1756,350,-230,120,2000
1757,170,-120,0,2000
1758,-20,0,20,2000
1759,-90,70,150,2000
1760,-140,210,480,2000
1761,-40,340,880,2000
1762,-30,360,990,2000
1763,70,370,1030,2000
1764,280,370,1310,2000
1765,310,390,1310,2000
1766,420,300,1490,2000
1767,370,280,1430,2000
1768,590,130,1390,2000
1769,510,80,1210,2000
1770,590,-10,1080,2000
1771,620,-100,1020,2000
1772,460,-80,920,2000
1773,640,-60,900,2000
1774,550,-50,840,2000
1775,540,-40,810,2000
1776,470,-20,790,2000
1777,430,20,840,2000
1778,440,90,860,2000
1779,440,100,900,2000
1780,440,110,910,2000
1781,450,110,920,2000
1782,460,110,940,2000
1783,460,110,920,2000
1784,460,110,910,2000
1785,460,120,890,2000
1786,460,120,880,2000
1787,460,110,890,2000
1788,470,110,890,2000
1789,460,100,880,2000
1790,470,110,880,2000
1791,470,110,860,2000
1792,460,110,860,2000
1793,480,100,840,2000
1794,390,120,870,2000
1795,460,110,880,2000
1796,450,140,940,2000
1797,490,130,950,2000
1798,460,110,940,2000
1799,470,100,910,2000
1800,440,100,850,2000
1801,510,100,790,2000
1802,460,150,870,2000
1803,440,110,870,2000
1804,450,110,880,2000
1805,450,110,910,2000
1806,480,110,910,2000
1807,520,110,860,2000
1808,500,110,830,2000
1809,500,110,850,2000
1810,510,110,860,2000
1811,520,100,860,2000
1812,530,100,860,2000
1813,520,100,850,2000
1814,520,100,840,2000
1815,540,100,840,2000
1816,520,100,850,2000
1817,530,100,860,2000
1818,530,100,860,2000
1819,530,100,850,2000
1820,530,90,850,2000
1821,520,100,840,2000
1822,530,100,840,2000
1823,540,90,850,2000
1824,520,90,850,2000
1825,520,90,850,0
1826,520,90,850,0
1827,520,90,850,0
1828,520,90,850,0
1829,530,90,850,0
1830,520,90,850,0
1831,520,90,850,0
1832,530,90,840,0
1833,540,90,840,0
1834,520,90,850,0
1835,520,90,850,0
1836,530,90,850,0
1837,530,90,850,0
1838,530,90,850,0
1839,530,90,850,0
1840,530,100,850,0
1841,530,90,850,0
1842,530,100,850,0
1843,530,90,850,0
1844,530,100,850,0
1845,530,90,850,0
1846,520,80,850,0
1847,520,90,850,0
1848,530,80,850,0
1849,520,90,840,0
1850,530,90,850,0
1851,550,100,850,0
1852,520,90,840,0
1853,550,30,850,0
1854,540,110,840,0
1855,540,80,850,0
1856,530,90,850,0
1857,530,100,840,0
1858,530,100,840,0
1859,530,90,840,0
1860,530,90,850,0
1861,530,90,850,0
1862,540,90,850,0
1863,540,90,850,0
1864,530,90,840,0
1865,530,90,840,0
1866,540,90,850,0
1867,530,100,840,0
1868,540,90,850,0
1869,540,90,850,0
1870,530,100,840,0
1871,530,100,850,0
1872,540,90,840,0
1873,540,90,840,0
1874,530,100,840,0
1875,530,90,840,0
1876,530,100,850,0
1877,530,100,840,0
1878,530,90,840,0
1879,530,100,840,0
1880,530,100,850,0
1881,520,100,850,0
1882,530,90,850,0
1883,530,100,850,0
1884,530,100,850,0
1885,530,90,850,0
1886,530,90,850,0
1887,530,90,850,0
1888,530,90,840,0
1889,520,90,840,0
1890,540,100,850,0
1891,530,100,840,0
1892,520,90,850,0
1893,530,100,840,0
1894,530,90,840,0
1895,540,100,840,0
1896,540,90,850,0
1897,530,100,840,0
1898,530,90,840,0
1899,570,110,840,0
1900,530,80,840,0
1901,540,100,840,0
1902,530,100,840,0
1903,550,100,830,0
1904,540,100,840,0
1905,540,100,840,0
1906,540,90,840,0
1907,540,90,840,0
1908,550,100,840,0
1909,540,100,840,0
1910,540,90,840,0
1911,550,90,830,0
1912,550,100,840,0
1913,540,90,840,0
1914,540,90,830,0
1915,530,90,840,0
1916,550,90,850,0
1917,540,90,840,0
1918,550,90,840,0
1919,540,90,840,0
1920,540,90,840,0
1921,540,90,830,0
1922,540,90,840,0
1923,540,90,840,0
1924,540,90,840,0
1925,540,90,850,0
1926,540,80,840,0
1927,540,80,840,0
1928,540,90,840,0
1929,550,90,830,0
1930,530,90,840,0
1931,550,70,830,0
1932,520,90,850,0
1933,550,90,840,0
1934,530,100,850,0
1935,520,70,850,0
1936,560,100,860,0
1937,520,50,860,0
1938,520,110,850,0
1939,480,80,850,0
1940,510,80,850,0
1941,480,90,850,0
1942,500,110,900,0
1943,520,70,890,0
1944,510,90,870,0
1945,470,100,870,0
1946,570,80,840,0
1947,540,80,800,0
1948,530,80,790,0
1949,540,90,820,0
1950,560,80,840,0
1951,560,90,830,0
1952,570,90,840,0
1953,560,90,850,0
1954,560,90,830,0
1955,550,90,830,0
1956,560,100,820,0
1957,550,90,820,0
1958,560,90,840,0
1959,560,80,850,0
1960,560,70,840,0
1961,560,80,840,0
1962,550,80,830,0
1963,550,80,830,0
1964,550,80,840,0
1965,550,90,840,0
1966,550,80,840,0
1967,540,90,840,0
1968,550,90,840,0
1969,550,90,840,0
1970,540,80,840,0
1971,550,80,840,0
1972,540,80,840,0
1973,540,80,840,0
1974,540,80,840,0
1975,540,80,840,2000
1976,540,70,840,2000
1977,540,90,840,2000
1978,540,80,840,2000
1979,540,80,840,2000
1980,540,80,840,2000
1981,530,70,840,2000
1982,540,80,850,2000
1983,540,80,840,2000
1984,540,90,840,2000
1985,540,80,850,2000
1986,540,80,840,2000
1987,530,80,830,2000
1988,540,80,850,2000
1989,530,80,840,2000
1990,540,80,840,2000
1991,550,80,840,2000
1992,540,80,810,2000
1993,530,90,790,2000
1994,520,110,770,2000
1995,610,90,750,2000
1996,470,170,790,2000
1997,340,280,860,2000
1998,420,350,990,2000
1999,450,370,1240,2000
2000,380,380,1480,2000
2001,620,360,1730,2000
2002,650,270,1840,2000
2003,760,170,1690,2000
2004,1060,20,1360,2000
2005,1090,-110,980,2000
2006,1040,-150,500,2000
2007,910,-210,270,2000
2008,540,-180,90,2000
2009,300,-140,10,2000
2010,90,-70,-50,2000
2011,0,20,40,2000
2012,-190,100,180,2000
2013,-150,190,600,2000
2014,-220,310,820,2000
2015,-60,360,1100,2000
2016,0,380,890,2000
2017,350,320,1220,2000
2018,190,350,1210,2000
2019,500,250,1420,2000
2020,390,220,1460,2000
2021,570,120,1500,2000
2022,590,100,1420,2000
2023,570,50,1230,2000
2024,590,-10,1120,2000
2025,480,-20,1000,2000
2026,630,-60,950,2000
2027,550,-100,840,2000
2028,450,-50,770,2000
2029,460,-50,770,2000
2030,380,-20,770,2000
2031,410,20,820,2000
2032,380,30,850,2000
2033,380,60,890,2000
2034,370,60,930,2000
2035,380,80,960,2000
2036,370,90,970,2000
2037,370,100,970,2000
2038,370,100,970,2000
2039,390,90,960,2000
2040,380,100,940,2000
2041,420,90,920,2000
2042,420,80,930,2000
2043,430,70,920,2000
2044,420,90,900,2000
2045,450,90,920,2000
2046,440,90,910,2000
2047,430,100,900,2000
2048,460,60,910,2000
2049,390,100,890,2000
2050,390,70,930,2000
2051,410,100,870,2000
2052,410,60,890,2000
2053,370,100,960,2000
2054,450,110,970,2000
2055,410,110,970,2000
2056,450,90,920,2000
2057,470,10,800,2000
2058,410,170,820,2000
2059,480,50,890,2000
2060,430,90,860,2000
2061,380,110,930,2000
2062,420,140,970,2000
2063,470,70,980,2000
2064,500,60,870,2000
2065,480,100,840,2000
2066,460,90,860,2000
2067,460,90,870,2000
2068,480,100,850,2000
2069,470,100,860,2000
2070,490,100,890,2000
2071,490,90,880,2000
2072,470,90,870,2000
2073,480,90,870,2000
2074,480,90,880,2000
2075,490,100,870,0
2076,500,80,870,0
2077,470,90,860,0
2078,480,100,860,0
2079,470,90,860,0
2080,520,60,870,0
2081,480,90,860,0
2082,490,90,860,0
2083,490,100,860,0
2084,510,90,870,0
2085,500,100,870,0
2086,490,90,860,0
2087,500,90,860,0
2088,500,100,870,0
2089,490,90,870,0
2090,500,80,860,0
2091,500,80,860,0
2092,490,90,860,0
2093,500,90,860,0
2094,490,90,860,0
2095,500,90,860,0
2096,500,90,870,0
2097,500,90,870,0
2098,490,80,870,0
2099,500,90,870,0
2100,500,80,860,0
2101,500,90,860,0
2102,500,90,860,0
2103,500,90,860,0
2104,500,90,870,0
2105,500,90,870,0
2106,500,90,860,0
2107,500,90,870,0
2108,500,90,860,0
2109,500,80,860,0
2110,490,90,870,0
2111,510,90,870,0
2112,500,80,860,0
2113,500,80,860,0
2114,510,90,870,0
2115,490,90,860,0
2116,490,80,860,0
2117,490,90,860,0
2118,500,80,860,0
2119,500,90,870,0
2120,490,80,870,0
2121,510,70,870,0
2122,500,90,860,0
2123,500,90,860,0
2124,490,80,860,0
2125,500,100,860,0
2126,500,90,860,0
2127,500,80,860,0
2128,500,80,870,0
2129,500,90,870,0
2130,490,90,860,0
2131,500,90,860,0
2132,490,90,860,0
2133,500,90,860,0
2134,490,90,860,0
2135,500,90,860,0
2136,500,80,860,0
2137,510,90,860,0
2138,510,90,860,0
2139,510,80,860,0
2140,500,90,860,0
2141,510,90,860,0
2142,480,80,860,0
2143,520,80,870,0
2144,490,90,860,0
2145,500,90,860,0
2146,500,90,860,0
2147,500,90,860,0
2148,500,90,860,0
2149,500,90,870,0
2150,500,90,860,0
2151,500,80,860,0
2152,510,90,860,0
2153,500,90,860,0
2154,500,90,860,0
2155,500,90,860,0
2156,500,90,860,0
2157,510,90,860,0
2158,510,90,860,0
2159,500,80,870,0
2160,510,80,860,0
2161,510,80,860,0
2162,510,90,860,0
2163,510,90,860,0
2164,510,90,870,0
2165,500,80,860,0
2166,500,80,860,0
2167,510,90,860,0
2168,510,90,860,0
2169,500,80,860,0
2170,510,80,860,0
2171,510,80,860,0
2172,510,70,870,0
2173,500,80,860,0
2174,500,70,850,0
2175,500,80,860,0
2176,510,80,860,0
2177,510,70,860,0
2178,510,80,870,0
2179,510,80,860,0
2180,500,70,860,0
2181,510,80,870,0
2182,520,80,860,0
2183,500,80,860,0
2184,500,70,860,0
2185,510,70,860,0
2186,510,80,860,0
2187,510,70,870,0
2188,510,80,870,0
2189,500,80,860,0
2190,510,80,860,0
2191,510,70,860,0
2192,510,70,860,0
2193,510,80,860,0
2194,510,70,870,0
2195,500,70,860,0
2196,500,80,860,0
2197,500,70,860,0
2198,500,70,870,0
2199,470,80,860,0
2200,510,60,880,0
2201,460,80,870,0
2202,500,70,890,0
2203,470,50,880,0
2204,480,80,870,0
2205,470,60,860,0
2206,490,90,860,0
2207,480,70,870,0
2208,480,90,870,0
2209,460,80,880,0
2210,480,60,890,0
2211,460,60,870,0
2212,460,100,880,0
2213,520,70,920,0
2214,530,50,810,0
2215,470,80,820,0
2216,520,90,890,0
2217,520,60,870,0
2218,520,70,850,0
2219,520,70,870,0
2220,520,70,870,0
2221,510,70,860,0
2222,520,70,860,0
2223,520,70,860,0
2224,520,80,850,0
2225,520,70,860,2000
2226,510,60,860,2000
2227,520,60,860,2000
2228,520,60,860,2000
2229,520,70,860,2000
2230,510,60,860,2000
2231,510,70,860,2000
2232,520,70,850,2000
2233,530,70,860,2000
2234,520,60,850,2000
2235,520,60,860,2000
2236,520,60,860,2000
2237,520,60,860,2000
2238,520,60,860,2000
2239,520,60,850,2000
2240,520,60,840,2000
2241,510,70,840,2000
2242,540,60,840,2000
2243,490,80,810,2000
2244,470,110,850,2000
2245,360,180,870,2000
2246,320,240,910,2000
2247,380,290,1090,2000
2248,390,310,1350,2000
2249,570,320,1600,2000
2250,600,260,1840,2000
2251,680,140,1740,2000
2252,860,-30,1520,2000
2253,950,-100,1180,2000
2254,1020,-130,890,2000
2255,860,-170,480,2000
2256,600,-240,220,2000
2257,330,-210,40,2000
2258,120,-130,-50,2000
2259,-30,-60,-30,2000
2260,-150,0,90,2000
2261,-160,100,350,2000
2262,-170,220,640,2000
2263,-190,320,1030,2000
2264,-110,330,1000,2000
2265,150,320,1300,2000
2266,10,370,1220,2000
2267,390,240,1330,2000
2268,260,250,1260,2000
2269,450,190,1420,2000
2270,480,160,1360,2000
2271,460,100,1300,2000
2272,600,40,1240,2000
2273,510,-40,1110,2000
2274,540,-20,1040,2000
2275,640,-60,930,2000
2276,470,-80,840,2000
2277,530,-90,830,2000
2278,420,-60,790,2000
2279,430,-20,790,2000
2280,380,0,820,2000
2281,400,30,870,2000
2282,390,40,910,2000
2283,380,40,950,2000
2284,370,40,960,2000
2285,400,50,960,2000
2286,390,60,930,2000
2287,400,70,930,2000
2288,440,60,950,2000
2289,430,60,960,2000
2290,410,40,930,2000
2291,440,50,930,2000
2292,450,50,910,2000
2293,460,60,910,2000
2294,440,50,910,2000
2295,440,60,900,2000
2296,440,80,910,2000
2297,460,60,900,2000
2298,400,20,940,2000
2299,420,60,900,2000
2300,450,60,900,2000
2301,400,50,920,2000
2302,430,90,940,2000
2303,400,100,960,2000
2304,460,40,940,2000
2305,460,20,800,2000
2306,450,110,900,2000
2307,480,20,890,2000
2308,400,60,880,2000
2309,430,80,940,2000
2310,450,110,970,2000
2311,460,60,940,2000
2312,520,60,870,2000
2313,460,70,850,2000
2314,460,70,870,2000
2315,460,60,870,2000
2316,470,60,870,2000
2317,480,70,880,2000
2318,470,60,890,2000
2319,470,60,880,2000
2320,480,60,880,2000
2321,480,70,880,2000
2322,470,60,890,2000
2323,470,50,880,2000
2324,470,60,870,2000
2325,470,60,870,0
2326,470,60,870,0
2327,470,60,880,0
2328,470,60,880,0
2329,470,70,870,0
2330,470,70,880,0
2331,470,70,880,0
2332,470,60,880,0
2333,470,50,870,0
2334,470,60,870,0
2335,470,60,880,0
2336,460,60,870,0
2337,470,60,870,0
2338,460,50,880,0
2339,470,60,870,0
2340,470,60,880,0
2341,470,60,880,0
2342,470,60,880,0
2343,470,60,870,0
2344,470,70,880,0
2345,490,50,870,0
2346,480,40,870,0
2347,470,60,880,0
2348,470,60,870,0
2349,490,50,860,0
2350,480,50,870,0
2351,480,70,870,0
2352,480,60,880,0
2353,480,60,870,0
2354,480,60,870,0
2355,480,60,870,0
2356,480,60,870,0
2357,480,50,870,0
2358,480,60,870,0
2359,480,60,870,0
2360,480,60,870,0
2361,500,60,880,0
2362,480,60,870,0
2363,490,50,870,0
2364,470,60,870,0
2365,520,60,880,0
2366,480,60,870,0
2367,490,60,870,0
2368,480,60,880,0
2369,480,50,870,0
2370,480,50,870,0
2371,490,60,880,0
2372,480,60,870,0
2373,480,50,870,0
2374,470,50,870,0
2375,470,60,870,0
2376,470,60,870,0
2377,480,60,860,0
2378,480,60,870,0
2379,480,60,880,0
2380,470,50,870,0
2381,480,60,870,0
2382,480,60,880,0
2383,480,50,870,0
2384,470,60,870,0
2385,490,60,880,0
2386,480,60,880,0
2387,470,50,870,0
2388,480,60,870,0
2389,470,60,870,0
2390,480,60,870,0
2391,480,60,880,0
2392,480,60,880,0
2393,470,50,880,0
2394,470,60,880,0
2395,480,60,880,0
2396,480,50,880,0
2397,470,50,870,0
2398,470,60,870,0
2399,470,50,880,0
2400,470,60,870,0
2401,470,60,880,0
2402,470,50,870,0
2403,470,50,880,0
2404,470,50,880,0
2405,470,40,880,0
2406,460,50,880,0
2407,480,50,870,0
2408,460,50,870,0
2409,470,50,870,0
2410,470,50,880,0
2411,460,50,880,0
2412,530,40,880,0
2413,460,70,890,0
2414,510,40,880,0
2415,460,60,880,0
2416,470,50,880,0
2417,470,60,890,0
2418,460,80,920,0
2419,440,70,890,0
2420,500,30,870,0
2421,470,70,850,0
2422,500,70,860,0
2423,500,50,870,0
2424,490,60,860,0
2425,500,50,870,0
2426,500,50,870,0
2427,490,60,870,0
2428,510,60,870,0
2429,500,60,870,0
2430,480,60,860,0
2431,500,60,870,0
2432,490,50,860,0
2433,490,60,860,0
2434,490,60,870,0
2435,490,50,870,0
2436,500,50,860,0
2437,490,50,870,0
2438,500,60,870,0
2439,490,60,860,0
2440,490,60,870,0
2441,480,60,870,0
2442,490,50,860,0
2443,500,60,870,0
2444,500,60,870,0
2445,490,60,870,0
2446,480,50,870,0
2447,490,60,870,0
2448,490,50,870,0
2449,490,50,870,0
2450,490,60,870,2000
2451,480,50,870,2000
2452,490,50,870,2000
2453,480,60,870,2000
2454,490,50,870,2000
2455,480,50,870,2000
2456,480,60,870,2000
2457,490,50,870,2000
2458,480,60,870,2000
2459,490,50,870,2000
2460,480,50,870,2000
2461,480,50,870,2000
2462,490,50,870,2000
2463,490,50,870,2000
2464,490,50,870,2000
2465,480,50,870,2000
2466,480,50,860,2000
2467,500,50,860,2000
2468,480,60,860,2000
2469,490,60,860,2000
2470,540,30,850,2000
2471,460,80,880,2000
2472,330,130,930,2000
2473,250,180,960,2000
2474,320,220,1130,2000
2475,500,210,1500,2000
2476,460,220,1720,2000
2477,800,130,1790,2000
2478,780,0,1570,2000
2479,950,-60,1350,2000
2480,1010,-120,970,2000
2481,930,-190,630,2000
2482,740,-200,320,2000
2483,460,-200,160,2000
2484,220,-140,90,2000
2485,80,-80,70,2000
2486,-50,-10,170,2000
2487,-150,60,370,2000
2488,-230,130,500,2000
2489,-150,230,810,2000
2490,-150,250,850,2000
2491,-10,270,1100,2000
2492,60,300,990,2000
2493,450,290,1330,2000
2494,330,320,1270,2000
2495,470,230,1410,2000
2496,560,230,1430,2000
2497,500,110,1410,2000
2498,620,90,1330,2000
2499,590,0,1190,2000
2500,530,-20,1070,2000
2501,600,-50,960,2000
2502,470,-70,850,2000
2503,520,-70,800,2000
2504,470,-100,740,2000
2505,440,-80,740,2000
2506,390,-50,770,2000
2507,350,-20,820,2000
2508,370,10,870,2000
2509,350,30,950,2000
2510,350,40,970,2000
2511,360,50,980,2000
2512,400,60,980,2000
2513,370,70,970,2000
2514,360,60,970,2000
2515,380,50,960,2000
2516,400,40,930,2000
2517,420,50,930,2000
2518,410,50,930,2000
2519,430,50,950,2000
2520,410,60,940,2000
2521,450,40,920,2000
2522,420,60,910,2000
2523,420,50,890,2000
2524,410,50,900,2000
2525,390,70,900,2000
2526,450,40,870,2000
2527,360,80,930,2000
2528,440,60,970,2000
2529,450,60,980,2000
2530,430,90,960,2000
2531,440,70,960,2000
2532,420,10,860,2000
2533,380,120,850,2000
2534,450,50,870,2000
2535,380,70,910,2000
2536,410,80,940,2000
2537,370,100,970,2000
2538,450,40,960,2000
2539,460,50,880,2000
2540,450,90,870,2000
2541,440,70,880,2000
2542,460,70,910,2000
2543,460,80,890,2000
2544,460,70,900,2000
2545,470,60,920,2000
2546,430,120,880,2000
2547,460,50,920,2000
2548,450,80,880,2000
2549,460,100,860,2000
2550,460,110,880,0
2551,450,90,880,0
2552,450,60,880,0
2553,460,40,890,0
2554,460,30,870,0
2555,470,10,860,0
2556,460,20,860,0
2557,480,30,870,0
2558,500,50,900,0
2559,510,100,920,0
2560,480,100,920,0
2561,460,100,900,0
2562,460,100,880,0
2563,460,100,880,0
2564,460,80,880,0
2565,470,70,880,0
2566,460,50,860,0
2567,470,40,870,0
2568,470,60,880,0
2569,470,50,890,0
2570,460,60,890,0
2571,470,70,880,0
2572,460,80,880,0
2573,460,80,880,0
2574,460,70,880,0
2575,470,50,870,0
2576,480,40,870,0
2577,490,50,870,0
2578,470,80,870,0
2579,470,80,870,0
2580,460,90,870,0
2581,490,100,870,0
2582,500,100,870,0
2583,480,100,880,0
2584,470,110,880,0
2585,460,110,890,0
2586,460,110,890,0
2587,460,100,880,0
2588,470,80,870,0
2589,470,70,870,0
2590,470,80,870,0
2591,470,90,870,0
2592,460,100,860,0
2593,480,100,870,0
2594,500,100,890,0
2595,470,100,880,0
2596,480,100,870,0
2597,480,100,860,0
2598,500,90,850,0
2599,480,100,870,0
2600,480,100,870,0
2601,530,30,860,0
2602,440,120,870,0
2603,470,60,890,0
2604,420,100,880,0
2605,510,60,880,0
2606,390,120,880,0
2607,500,90,920,0
2608,380,100,890,0
2609,440,100,910,0
2610,460,90,890,0
2611,450,60,920,0
2612,460,120,870,0
2613,520,40,880,0
2614,470,60,890,0
2615,500,110,860,0
2616,510,110,870,0
2617,480,120,870,0
2618,470,120,880,0
2619,480,100,880,0
2620,460,90,880,0
2621,480,70,870,0
2622,500,60,860,0
2623,500,60,850,0
2624,510,70,850,0
2625,500,90,860,2000
2626,490,90,870,2000
2627,490,90,880,2000
2628,510,90,870,2000
2629,500,90,870,2000
2630,480,100,870,2000
2631,470,100,880,2000
2632,480,100,870,2000
2633,470,90,860,2000
2634,470,70,870,2000
2635,470,70,870,2000
2636,480,60,870,2000
2637,490,50,870,2000
2638,490,70,870,2000
2639,480,70,870,2000
2640,460,70,860,2000
2641,460,90,850,2000
2642,470,100,840,2000
2643,460,120,860,2000
2644,420,180,870,2000
2645,340,250,940,2000
2646,220,300,1090,2000
2647,210,310,1440,2000
2648,370,360,1880,2000
2649,550,270,1970,2000
2650,810,140,1810,2000
2651,1050,-10,1460,2000
2652,1100,-100,1110,2000
2653,1000,-100,740,2000
2654,800,-130,350,2000
2655,530,-230,120,2000
2656,220,-220,-60,2000
2657,80,-190,-110,2000
2658,-70,-50,-60,2000
2659,-200,50,80,2000
2660,-220,150,380,2000
2661,-280,310,590,2000
2662,-220,420,970,2000
2663,-210,490,950,2000
2664,160,480,1290,2000
2665,80,510,1250,2000
2666,510,300,1460,2000
2667,350,260,1360,2000
2668,560,120,1370,2000
2669,600,50,1240,2000
2670,480,50,1180,2000
2671,520,0,1040,2000
2672,530,-30,1000,2000
2673,630,-20,960,2000
2674,560,-20,900,2000
2675,580,-20,870,2000
2676,500,0,850,2000
2677,470,20,840,2000
2678,470,70,860,2000
2679,460,90,900,2000
2680,450,110,890,2000
2681,450,110,940,2000
2682,460,130,940,2000
2683,460,100,920,2000
2684,460,100,880,2000
2685,460,110,850,2000
2686,520,110,880,2000
2687,480,100,880,2000
2688,470,110,880,2000
2689,490,120,870,2000
2690,460,110,860,2000
2691,490,120,860,2000
2692,470,90,860,2000
2693,470,110,870,2000
2694,500,90,880,2000
2695,420,140,900,2000
2696,460,120,920,2000
2697,460,120,920,2000
2698,490,100,940,2000
2699,460,100,870,2000
2700,500,130,830,2000
2701,440,140,870,2000
2702,490,90,860,2000
2703,400,130,860,2000
2704,460,130,910,2000
2705,470,110,940,2000
2706,520,100,900,2000
2707,480,110,860,2000
2708,460,130,860,2000
2709,480,130,840,2000
2710,500,120,860,2000
2711,470,140,870,2000
2712,490,110,870,2000
2713,480,120,870,2000
2714,470,110,860,2000
2715,490,110,870,2000
2716,470,110,860,2000
2717,480,110,860,2000
2718,470,110,860,2000
2719,480,110,870,2000
2720,480,120,870,2000
2721,480,110,870,2000
2722,480,110,860,2000
2723,470,110,860,2000
2724,470,110,870,2000
2725,470,120,860,0
2726,500,110,860,0
2727,470,120,870,0
2728,480,120,870,0
2729,480,110,870,0
2730,470,110,860,0
2731,470,110,870,0
2732,480,110,870,0
2733,480,120,860,0
2734,470,110,860,0
2735,470,120,860,0
2736,490,120,870,0
2737,480,110,870,0
2738,480,120,870,0
2739,480,120,870,0
2740,480,110,860,0
2741,470,110,850,0
2742,460,90,840,0
2743,540,90,810,0
2744,520,60,810,0
2745,540,20,850,0
2746,460,20,800,0
2747,460,10,780,0
2748,500,40,790,0
2749,560,30,860,0
2750,520,60,880,0
2751,510,110,950,0
2752,540,110,890,0
2753,530,130,890,0
2754,540,160,880,0
2755,520,160,870,0
2756,570,170,850,0
2757,560,160,870,0
2758,580,160,860,0
2759,550,180,860,0
2760,540,150,820,0
2761,520,140,850,0
2762,570,130,820,0
2763,520,140,840,0
2764,580,150,770,0
2765,550,170,820,0
2766,560,160,830,0
2767,550,170,810,0
2768,520,160,840,0
2769,520,160,860,0
2770,520,150,860,0
2771,520,160,850,0
2772,540,160,850,0
2773,520,170,840,0
2774,520,170,850,0
2775,500,170,850,0
2776,520,160,840,0
2777,520,170,850,0
2778,500,160,840,0
2779,510,160,860,0
2780,490,170,850,0
2781,510,180,860,0
2782,500,170,850,0
2783,520,150,850,0
2784,510,160,840,0
2785,520,140,850,0
2786,520,130,840,0
2787,500,140,850,0
2788,480,170,860,0
2789,520,170,870,0
2790,500,170,850,0
2791,510,70,870,0
2792,510,50,810,0
2793,520,30,840,0
2794,500,10,810,0
2795,510,-10,770,0
2796,540,-50,770,0
2797,580,-110,770,0
2798,610,-120,810,0
2799,600,-120,820,0
2800,590,-90,860,0
2801,560,-70,860,0
2802,550,-70,890,0
2803,560,-70,810,0
2804,590,-70,820,0
2805,590,-70,800,0
2806,630,-100,760,0
2807,660,-100,790,0
2808,630,-100,780,0
2809,650,-80,790,0
2810,640,-60,800,0
2811,620,-60,750,0
2812,640,-80,750,0
2813,640,-100,750,0
2814,670,-110,740,0
2815,700,-100,750,0
2816,710,-80,740,0
2817,710,-80,740,0
2818,680,-80,730,0
2819,660,-90,750,0
2820,650,-90,750,0
2821,650,-60,760,0
2822,660,-50,770,0
2823,660,-40,760,0
2824,670,-20,760,0
2825,670,-20,770,0
2826,680,-20,750,0
2827,650,-30,750,0
2828,670,-30,750,0
2829,670,-30,750,0
2830,670,-30,750,0
2831,660,-10,760,0
