sequence,accelx,accely,accelz,event
0,680,-60,740,0
1,200,0,980,0
2,200,0,980,0
3,200,0,970,0
4,200,0,970,0
5,200,0,980,0
6,210,0,980,0
7,200,0,980,0
8,200,-10,980,0
9,200,0,980,0
10,210,-10,980,0
11,200,0,980,0
12,200,0,980,0
13,200,0,980,0
14,200,0,980,0
15,210,-10,980,0
16,200,-10,980,0
17,200,0,980,0
18,200,0,980,0
19,200,0,980,0
20,200,0,980,0
21,200,-10,980,0
22,200,0,980,0
23,200,0,980,0
24,200,-10,980,0
25,190,0,980,0
26,200,0,980,0
27,200,0,980,0
28,200,0,980,0
29,200,0,980,0
30,200,0,980,0
31,190,0,980,0
32,190,0,980,0
33,200,0,990,0
34,200,0,980,0
35,200,0,980,0
36,200,0,970,0
37,200,0,980,0
38,200,0,980,0
39,190,0,980,0
40,200,0,980,0
41,200,0,980,0
42,200,0,980,0
43,180,0,980,0
44,200,0,980,0
45,180,10,980,0
46,180,10,980,0
47,190,10,980,0
48,160,10,980,0
49,180,-10,980,0
50,120,10,980,0
51,140,10,970,0
52,170,10,990,0
53,200,-10,990,0
54,160,10,980,0
55,120,0,980,0
56,100,20,980,0
57,160,20,1010,0
58,100,10,990,0
59,140,-30,980,0
60,90,30,1000,0
61,0,40,1000,0
62,50,40,1020,0
63,40,10,1030,0
64,110,0,1000,0
65,180,10,1000,0
66,110,10,960,0
67,170,20,970,0
68,190,20,970,0
69,210,10,970,0
70,210,10,980,0
71,190,10,980,0
72,190,0,980,0
73,190,10,990,0
74,190,10,980,0
75,210,0,990,2000
76,200,10,980,2000
77,210,10,980,2000
78,210,10,970,2000
79,200,10,970,2000
80,200,0,970,2000
81,200,10,980,2000
82,200,10,980,2000
83,210,10,990,2000
84,200,10,980,2000
85,200,10,980,2000
86,200,10,980,2000
87,210,10,980,2000
88,190,10,970,2000
89,210,10,980,2000
90,200,10,980,2000
91,190,30,980,2000
92,180,40,980,2000
93,230,60,1010,2000
94,170,170,930,2000
95,190,250,890,2000
96,290,280,810,2000
97,280,310,920,2000
98,330,280,970,2000
99,270,290,1030,2000
100,300,250,1190,2000
101,320,210,1360,2000
102,300,120,1500,2000
103,390,30,1540,2000
104,680,-110,1560,2000
105,510,-230,1490,2000
106,490,-240,1310,2000
107,630,-290,1120,2000
108,560,-270,790,2000
109,630,-380,590,2000
110,460,-390,450,2000
111,290,-350,430,2000
112,190,-280,370,2000
113,60,-190,380,2000
114,-110,-120,420,2000
115,-260,-10,480,2000
116,-290,-30,620,2000
117,-360,-40,740,2000
118,-290,0,880,2000
119,-270,-20,910,2000
120,-130,-50,950,2000
121,-160,20,1090,2000
122,-30,-30,1180,2000
123,-10,-50,1280,2000
124,-20,-50,1280,2000
125,220,-60,1300,2000
126,100,-80,1260,2000
127,260,-60,1220,2000
128,220,-90,1140,2000
129,300,-120,1080,2000
130,270,-80,1040,2000
131,240,-80,1000,2000
132,210,-40,970,2000
133,210,-10,970,2000
134,220,20,980,2000
135,230,10,1010,2000
136,260,0,990,2000
137,210,10,980,2000
138,260,20,980,2000
139,240,30,970,2000
140,240,40,980,2000
141,290,20,970,2000
142,260,10,970,2000
143,260,30,970,2000
144,220,10,950,2000
145,260,30,990,2000
146,260,30,960,2000
147,150,50,970,2000
148,220,30,980,2000
149,240,50,1030,2000
150,230,30,1050,2000
151,160,70,1010,2000
152,260,-30,940,2000
153,180,90,900,2000
154,290,20,920,2000
155,150,70,960,2000
156,240,70,1050,2000
157,150,90,1050,2000
158,200,-10,1010,2000
159,320,40,960,2000
160,260,0,960,2000
161,260,0,960,2000
162,240,10,960,2000
163,290,0,950,2000
164,280,0,940,2000
165,310,-10,970,2000
166,280,-10,960,2000
167,270,-10,960,2000
168,260,0,960,2000
169,270,-10,970,2000
170,280,-20,980,2000
171,280,-10,980,2000
172,260,-20,980,2000
173,280,-30,950,2000
174,280,-40,960,2000
175,270,-50,960,0
176,290,-50,970,0
177,260,-30,970,0
178,280,-50,970,0
179,280,-60,970,0
180,290,-60,970,0
181,290,-60,970,0
182,300,-60,970,0
183,320,-50,970,0
184,320,-60,960,0
185,330,-60,960,0
186,320,-60,950,0
187,330,-70,950,0
188,340,-80,950,0
189,350,-80,950,0
190,350,-70,950,0
191,360,-70,950,0
192,360,-80,950,0
193,360,-70,950,0
194,360,-60,950,0
195,380,-70,940,0
196,370,-70,940,0
197,380,-60,940,0
198,390,-70,940,0
199,400,-70,940,0
200,380,-60,940,0
201,400,-70,930,0
202,390,-70,940,0
203,400,-80,950,0
204,390,-80,940,0
205,370,-100,930,0
206,390,-90,930,0
207,410,-80,940,0
208,390,-70,950,0
209,370,-80,930,0
210,370,-100,920,0
211,390,-100,940,0
212,400,-70,950,0
213,390,-60,950,0
214,360,-60,930,0
215,360,-70,920,0
216,370,-70,950,0
217,390,-70,960,0
218,380,-60,950,0
219,360,-60,930,0
220,350,-80,910,0
221,370,-100,920,0
222,400,-70,950,0
223,400,-60,960,0
224,360,-50,960,0
225,360,-60,940,0
226,360,-80,930,0
227,360,-80,940,0
228,390,-80,960,0
229,370,-70,950,0
230,370,-80,930,0
231,360,-90,910,0
232,360,-120,910,0
233,380,-130,930,0
234,410,-130,940,0
235,420,-120,950,0
236,410,-100,950,0
237,360,-80,940,0
238,360,-90,930,0
239,360,-100,930,0
240,410,-100,960,0
241,400,-80,960,0
242,370,-90,940,0
243,350,-120,890,0
244,350,-130,900,0
245,370,-120,950,0
246,410,-130,970,0
247,390,-110,950,0
248,360,-90,920,0
249,360,-90,910,0
250,360,-60,930,0
251,410,-70,960,0
252,390,-70,960,0
253,360,-70,940,0
254,360,-90,930,0
255,350,-100,910,0
256,370,-120,940,0
257,400,-130,960,0
258,380,-120,950,0
259,380,-120,920,0
260,370,-110,910,0
261,390,-100,930,0
262,390,-80,940,0
263,390,-60,950,0
264,360,-50,930,0
265,370,-70,920,0
266,380,-80,940,0
267,390,-80,950,0
268,390,-90,950,0
269,380,-90,940,0
270,370,-90,920,0
271,370,-100,930,0
272,380,-90,940,0
273,390,-80,940,0
274,380,-70,940,0
275,380,-70,940,0
276,370,-70,940,0
277,360,-60,940,0
278,370,-70,940,0
279,380,-70,950,0
280,370,-70,940,0
281,380,-80,930,0
282,370,-80,920,0
283,360,-70,930,0
284,360,-60,930,0
285,400,-60,940,0
286,320,-60,930,0
287,380,-80,970,0
288,300,-60,940,0
289,340,-70,940,0
290,350,-60,920,0
291,350,-70,970,0
292,360,-60,970,0
293,350,-80,970,0
294,370,-50,970,0
295,410,-70,960,0
296,340,-70,930,0
297,440,-50,920,0
298,370,-60,920,0
299,390,-60,910,0
300,410,-40,900,0
301,380,-60,920,0
302,380,-50,920,0
303,400,-70,940,0
304,370,-60,940,0
305,390,-60,940,0
306,390,-70,940,0
307,370,-60,940,0
308,390,-60,940,0
309,380,-60,940,0
310,380,-60,940,0
311,380,-60,930,0
312,400,-60,930,0
313,380,-60,930,0
314,390,-60,930,0
315,390,-60,940,0
316,390,-60,940,0
317,380,-70,940,0
318,390,-70,930,0
319,390,-60,940,0
320,380,-70,940,0
321,380,-70,940,0
322,380,-60,940,0
323,390,-60,940,0
324,390,-60,930,0
325,390,-60,930,2000
326,390,-60,930,2000
327,390,-60,940,2000
328,380,-60,940,2000
329,380,-60,940,2000
330,380,-60,940,2000
331,390,-60,940,2000
332,380,-60,930,2000
333,390,-60,940,2000
334,380,-70,940,2000
335,390,-60,930,2000
336,380,-60,940,2000
337,390,-60,930,2000
338,380,-60,930,2000
339,400,-60,940,2000
340,380,-60,930,2000
341,390,-60,920,2000
342,430,-70,910,2000
343,380,30,900,2000
344,410,90,900,2000
345,350,160,900,2000
346,290,220,920,2000
347,310,270,970,2000
348,350,270,1040,2000
349,360,250,1120,2000
350,320,190,1330,2000
351,220,60,1500,2000
352,220,0,1690,2000
353,420,-90,1760,2000
354,490,-190,1680,2000
355,580,-240,1410,2000
356,830,-220,1070,2000
357,840,-200,740,2000
358,890,-250,460,2000
359,730,-190,300,2000
360,390,-110,140,2000
361,110,-10,140,2000
362,-20,70,220,2000
363,-240,70,380,2000
364,-160,50,550,2000
365,-250,70,730,2000
366,-200,90,970,2000
367,-150,110,1060,2000
368,-10,20,1090,2000
369,180,0,1230,2000
370,130,-10,1280,2000
371,330,0,1410,2000
372,230,-20,1370,2000
373,470,-60,1370,2000
374,400,-140,1150,2000
375,550,-180,1110,2000
376,530,-130,1000,2000
377,500,-120,960,2000
378,530,-80,950,2000
379,520,-40,910,2000
380,510,-20,890,2000
381,520,-50,850,2000
382,510,-20,840,2000
383,530,-20,850,2000
384,500,0,860,2000
385,520,10,870,2000
386,480,50,870,2000
387,500,50,860,2000
388,500,30,870,2000
389,520,10,870,2000
390,520,10,870,2000
391,520,10,870,2000
392,500,30,870,2000
393,530,30,860,2000
394,550,0,850,2000
395,480,20,830,2000
396,460,-20,800,2000
397,520,60,910,2000
398,470,0,910,2000
399,520,30,910,2000
400,500,10,920,2000
401,510,20,930,2000
402,480,0,860,2000
403,500,20,760,2000
404,500,40,860,2000
405,470,20,860,2000
406,530,30,880,2000
407,530,20,920,2000
408,510,40,950,2000
409,510,20,890,2000
410,590,-10,840,2000
411,390,70,790,2000
412,590,-10,840,2000
413,530,20,830,2000
414,530,20,820,2000
415,570,10,830,2000
416,530,20,840,2000
417,550,20,850,2000
418,530,20,850,2000
419,520,20,860,2000
420,540,10,860,2000
421,530,20,850,2000
422,540,10,860,2000
423,550,20,850,2000
424,530,10,840,2000
425,540,10,850,0
426,530,10,850,0
427,530,10,850,0
428,540,10,850,0
429,550,10,850,0
430,540,10,850,0
431,540,10,850,0
432,530,10,860,0
433,530,10,860,0
434,540,10,850,0
435,530,10,860,0
436,550,10,850,0
437,530,10,840,0
438,530,10,850,0
439,540,10,850,0
440,530,10,850,0
441,530,0,850,0
442,540,0,850,0
443,540,0,850,0
444,540,-10,850,0
445,540,-10,840,0
446,540,-20,820,0
447,550,-20,830,0
448,550,-10,820,0
449,560,-10,830,0
450,540,0,830,0
451,550,10,850,0
452,560,20,860,0
453,540,20,860,0
454,580,0,850,0
455,570,0,840,0
456,570,0,840,0
457,580,0,830,0
458,560,-10,830,0
459,570,-10,830,0
460,570,-10,830,0
461,570,-10,840,0
462,570,-10,830,0
463,570,-10,830,0
464,570,-10,830,0
465,560,-10,830,0
466,580,-20,830,0
467,570,-10,830,0
468,570,-20,840,0
469,580,-20,830,0
470,570,-20,830,0
471,570,-20,830,0
472,570,-30,820,0
473,570,-20,830,0
474,570,-20,820,0
475,570,-20,830,0
476,570,-20,830,0
477,580,-20,820,0
478,570,-20,830,0
479,580,-20,830,0
480,580,-20,820,0
481,580,-20,830,0
482,580,-20,830,0
483,580,-30,830,0
484,580,-20,830,0
485,580,-20,820,0
486,570,-20,830,0
487,580,-20,820,0
488,570,-20,820,0
489,580,-30,820,0
490,580,-20,840,0
491,580,-30,840,0
492,560,-20,830,0
493,570,-20,830,0
494,580,-30,830,0
495,570,-20,830,0
496,580,-20,830,0
497,570,-30,830,0
498,570,-20,830,0
499,570,-20,830,0
500,580,-30,830,0
501,570,-20,830,0
502,570,-20,830,0
503,570,-30,830,0
504,570,-20,830,0
505,570,-20,830,0
506,570,-30,830,0
507,580,-30,830,0
508,570,-20,820,0
509,580,-30,830,0
510,570,-20,830,0
511,570,-30,820,0
512,580,-30,830,0
513,580,-30,830,0
514,570,-20,830,0
515,580,-30,820,0
516,570,-20,830,0
517,580,-30,840,0
518,580,-30,830,0
519,570,-20,830,0
520,580,-30,830,0
521,580,-30,830,0
522,570,-30,820,0
523,580,-40,830,0
524,570,-30,830,0
525,570,-20,830,0
526,570,-30,830,0
527,570,-20,830,0
528,570,-30,830,0
529,570,-30,830,0
530,570,-30,830,0
531,570,-40,840,0
532,560,-30,840,0
533,570,-30,830,0
534,570,-30,830,0
535,560,-30,820,0
536,570,-30,830,0
537,570,-30,840,0
538,560,-30,830,0
539,560,-40,840,0
540,560,-30,840,0
541,560,-30,830,0
542,560,-40,830,0
543,570,-30,830,0
544,570,-30,840,0
545,560,-30,830,0
546,560,-40,830,0
547,560,-30,830,0
548,570,-30,840,0
549,570,-30,840,0
550,550,-40,840,0
551,560,-30,830,0
552,580,-30,840,0
553,570,-20,840,0
554,560,-40,830,0
555,570,-40,830,0
556,560,-30,830,0
557,570,-30,840,0
558,570,-30,840,0
559,570,-30,840,0
560,560,-30,840,0
561,570,-30,830,0
562,570,-30,830,0
563,570,-30,830,0
564,570,-30,830,0
565,560,-30,830,0
566,560,-30,830,0
567,570,-30,830,0
568,570,-30,830,0
569,560,-30,840,0
570,560,-40,830,0
571,550,-30,830,0
572,570,-40,840,0
573,540,-30,830,0
574,570,-40,830,0
575,530,-20,830,0
576,550,-30,850,0
577,540,-40,830,0
578,570,-20,850,0
579,530,-30,840,0
580,590,-30,870,0
581,510,-70,840,0
582,510,-10,820,0
583,540,-50,850,0
584,530,-20,850,0
585,520,-30,880,0
586,520,-40,880,0
587,510,-20,880,0
588,580,-40,860,0
589,550,-40,830,0
590,530,-30,820,0
591,570,-40,820,0
592,540,-20,820,0
593,580,-20,820,0
594,580,-20,820,0
595,540,-40,810,0
596,580,-40,830,0
597,580,-40,850,0
598,580,-30,840,0
599,570,-20,830,0
600,580,-30,830,2000
601,570,-30,830,2000
602,570,-40,820,2000
603,570,-40,820,2000
604,570,-30,820,2000
605,570,-30,830,2000
606,550,-30,830,2000
607,570,-30,830,2000
608,570,-30,830,2000
609,570,-30,830,2000
610,560,-30,830,2000
611,570,-30,840,2000
612,570,-30,840,2000
613,570,-30,830,2000
614,570,-40,820,2000
615,570,-30,820,2000
616,570,-30,820,2000
617,570,-30,810,2000
618,580,-20,800,2000
619,570,10,840,2000
620,580,50,820,2000
621,500,120,770,2000
622,460,230,850,2000
623,480,260,940,2000
624,490,230,1110,2000
625,460,170,1350,2000
626,460,100,1480,2000
627,570,10,1560,2000
628,670,-100,1610,2000
629,760,-250,1550,2000
630,860,-250,1290,2000
631,880,-300,920,2000
632,830,-320,640,2000
633,640,-380,380,2000
634,480,-390,250,2000
635,310,-280,160,2000
636,160,-230,120,2000
637,10,-120,210,2000
638,-150,-70,370,2000
639,-140,-10,590,2000
640,-250,-20,720,2000
641,-80,-20,850,2000
642,-50,20,960,2000
643,50,-30,950,2000
644,180,20,1110,2000
645,250,-50,1220,2000
646,240,0,1250,2000
647,360,-110,1230,2000
648,470,-130,1170,2000
649,480,-150,1130,2000
650,530,-200,1010,2000
651,660,-230,980,2000
652,530,-230,850,2000
653,740,-180,890,2000
654,620,-130,840,2000
655,730,-80,870,2000
656,720,-70,860,2000
657,630,-20,830,2000
658,680,-30,850,2000
659,600,0,810,2000
660,630,-10,790,2000
661,580,30,740,2000
662,680,10,780,2000
663,680,-20,790,2000
664,650,-10,750,2000
665,660,0,750,2000
666,650,10,750,2000
667,680,10,780,2000
668,670,30,770,2000
669,660,20,750,2000
670,660,10,740,2000
671,660,30,750,2000
672,670,-10,760,2000
673,580,50,720,2000
674,660,-10,750,2000
675,560,80,740,2000
676,710,0,840,2000
677,600,20,840,2000
678,600,50,870,2000
679,610,90,860,2000
680,640,0,760,2000
681,690,30,640,2000
682,570,50,750,2000
683,650,40,770,2000
684,590,60,820,2000
685,620,80,820,2000
686,630,20,810,2000
687,680,40,740,2000
688,660,40,740,2000
689,670,30,750,2000
690,620,50,740,2000
691,710,10,730,2000
692,670,50,740,2000
693,680,40,750,2000
694,670,30,740,2000
695,700,30,740,2000
696,670,30,740,2000
697,680,20,740,2000
698,680,30,740,2000
699,680,30,740,2000
700,680,20,740,0
701,690,20,730,0
702,690,30,730,0
703,690,40,740,0
704,690,30,740,0
705,690,30,740,0
706,680,30,740,0
707,700,20,740,0
708,700,20,730,0
709,680,20,740,0
710,690,20,730,0
711,700,10,740,0
712,690,20,740,0
713,680,20,730,0
714,710,20,740,0
715,680,20,740,0
716,680,20,740,0
717,700,20,740,0
718,690,20,730,0
719,690,20,730,0
720,700,10,740,0
721,680,10,730,0
722,690,10,740,0
723,690,10,730,0
724,690,10,730,0
725,680,10,740,0
726,690,20,740,0
727,700,10,740,0
728,690,20,740,0
729,680,20,740,0
730,680,10,730,0
731,700,10,740,0
732,700,20,740,0
733,690,10,740,0
734,680,10,740,0
735,690,20,740,0
736,690,20,740,0
737,690,10,740,0
738,680,20,740,0
739,690,10,740,0
740,690,10,740,0
741,680,10,740,0
742,690,20,740,0
743,700,10,740,0
744,700,10,740,0
745,690,10,740,0
746,700,10,740,0
747,700,10,740,0
748,690,10,730,0
749,690,0,730,0
750,690,10,740,0
751,700,10,740,0
752,690,0,740,0
753,690,0,740,0
754,710,0,740,0
755,700,10,740,0
756,690,0,740,0
757,690,0,740,0
758,690,0,740,0
759,690,0,740,0
760,690,0,740,0
761,690,0,740,0
762,690,10,740,0
763,690,0,740,0
764,690,0,730,0
765,690,0,740,0
766,690,0,740,0
767,690,0,740,0
768,690,0,730,0
769,690,0,740,0
770,700,0,740,0
771,690,0,740,0
772,690,0,740,0
773,700,0,740,0
774,690,0,740,0
775,690,0,740,0
776,690,0,730,0
777,690,0,730,0
778,690,0,740,0
779,690,0,740,0
780,690,0,740,0
781,690,0,740,0
782,700,0,740,0
783,680,0,740,0
784,700,0,730,0
785,700,0,740,0
786,690,0,740,0
787,680,0,730,0
788,700,0,740,0
789,700,0,740,0
790,690,0,740,0
791,690,0,740,0
792,690,0,740,0
793,700,0,740,0
794,690,0,740,0
795,690,0,730,0
796,690,0,730,0
797,700,0,740,0
798,690,0,740,0
799,690,0,740,0
800,700,0,740,0
801,690,0,740,0
802,690,0,740,0
803,690,0,730,0
804,690,0,740,0
805,690,0,740,0
806,680,0,740,0
807,700,0,740,0
808,690,0,740,0
809,690,0,740,0
810,680,0,740,0
811,690,0,740,0
812,690,0,740,0
813,690,0,740,0
814,690,0,730,0
815,690,0,740,0
816,690,0,740,0
817,690,0,740,0
818,690,0,740,0
819,690,0,740,0
820,680,0,740,0
821,690,0,730,0
822,690,0,740,0
823,680,0,740,0
824,680,0,740,0
825,700,0,740,0
826,690,0,740,0
827,690,0,740,0
828,690,0,740,0
829,690,0,740,0
830,690,0,740,0
831,690,0,740,0
832,690,0,730,0
833,700,0,740,0
834,690,0,740,0
835,690,0,740,0
836,690,0,740,0
837,700,0,740,0
838,690,0,740,0
839,690,0,740,0
840,700,0,740,0
841,690,0,730,0
842,700,0,730,0
843,690,0,730,0
844,690,0,730,0
845,710,0,740,0
846,680,0,740,0
847,690,-10,740,0
848,690,0,740,0
849,680,10,750,0
850,670,-10,750,0
851,670,0,750,0
852,660,0,750,0
853,660,-10,740,0
854,690,0,740,0
855,670,0,740,0
856,670,0,750,0
857,640,20,750,0
858,670,0,750,0
859,650,0,780,0
860,650,10,800,0
861,680,-20,780,0
862,710,10,730,0
863,700,-10,710,0
864,660,0,700,0
865,690,0,700,0
866,720,0,710,0
867,690,0,730,0
868,720,0,730,0
869,690,0,730,0
870,700,0,730,0
871,700,0,750,0
872,680,30,720,0
873,680,10,720,0
874,720,-10,740,0
875,690,0,720,2000
876,700,0,720,2000
877,710,0,720,2000
878,700,0,720,2000
879,700,0,730,2000
880,710,0,730,2000
881,700,0,730,2000
882,710,0,730,2000
883,710,0,730,2000
884,710,0,730,2000
885,710,0,730,2000
886,710,0,720,2000
887,700,0,730,2000
888,710,0,730,2000
889,710,0,730,2000
890,710,0,730,2000
891,710,0,720,2000
892,710,0,720,2000
893,710,10,710,2000
894,720,10,720,2000
895,720,10,740,2000
896,730,0,740,2000
897,710,0,730,2000
898,690,10,720,2000
899,660,50,690,2000
900,640,110,680,2000
901,640,230,690,2000
902,590,310,750,2000
903,500,310,920,2000
904,550,310,1240,2000
905,590,170,1590,2000
906,730,150,1800,2000
907,1060,80,1770,2000
908,1070,-30,1450,2000
909,1180,-110,1020,2000
910,1160,-80,690,2000
911,940,-70,490,2000
912,740,-120,420,2000
913,480,-200,290,2000
914,320,-190,290,2000
915,190,-190,240,2000
916,70,-130,320,2000
917,-60,-40,470,2000
918,-120,0,570,2000
919,-140,30,760,2000
920,-180,40,760,2000
921,10,70,980,2000
922,-110,60,980,2000
923,90,20,1110,2000
924,50,30,1070,2000
925,260,-20,1130,2000
926,250,-40,1150,2000
927,320,-50,1120,2000
928,540,-70,1090,2000
929,450,-120,1050,2000
930,580,-120,1020,2000
931,570,-110,980,2000
932,610,-130,940,2000
933,740,-130,890,2000
934,660,-130,830,2000
935,760,-80,810,2000
936,650,-80,780,2000
937,710,-10,800,2000
938,730,0,800,2000
939,670,20,810,2000
940,720,20,790,2000
941,660,0,740,2000
942,700,0,750,2000
943,690,10,740,2000
944,700,30,740,2000
945,680,40,750,2000
946,700,50,740,2000
947,700,50,740,2000
948,700,30,720,2000
949,720,30,730,2000
950,720,30,730,2000
951,720,20,730,2000
952,720,40,720,2000
953,730,40,720,2000
954,720,40,720,2000
955,720,40,710,2000
956,700,40,690,2000
957,700,50,700,2000
958,700,-20,700,2000
959,640,100,670,2000
960,760,10,740,2000
961,680,70,740,2000
962,710,40,750,2000
963,730,30,760,2000
964,710,30,770,2000
965,690,40,750,2000
966,710,20,660,2000
967,590,100,690,2000
968,690,20,740,2000
969,650,30,760,2000
970,680,60,780,2000
971,700,30,790,2000
972,670,40,740,2000
973,680,50,720,2000
974,620,70,690,2000
975,690,40,710,0
976,690,20,710,0
977,700,20,720,0
978,720,20,740,0
979,710,20,740,0
980,720,10,730,0
981,720,20,730,0
982,700,20,730,0
983,720,10,730,0
984,700,10,720,0
985,700,10,730,0
986,720,0,720,0
987,700,10,730,0
988,710,10,730,0
989,710,10,720,0
990,700,10,710,0
991,710,10,730,0
992,710,10,740,0
993,700,10,730,0
994,710,10,730,0
995,710,10,730,0
996,710,10,730,0
997,700,10,720,0
998,710,10,720,0
999,720,10,730,0
1000,700,10,720,0
1001,710,10,730,0
1002,710,0,730,0
1003,710,0,730,0
1004,720,10,730,0
1005,720,10,730,0
1006,720,10,720,0
1007,700,10,730,0
1008,700,10,730,0
1009,710,10,720,0
1010,710,10,730,0
1011,720,10,730,0
1012,710,10,730,0
1013,710,10,730,0
1014,710,10,720,0
1015,710,10,720,0
1016,710,10,720,0
1017,720,10,730,0
1018,710,10,730,0
1019,710,0,740,0
1020,710,0,730,0
1021,720,0,720,0
1022,710,10,720,0
1023,700,10,720,0
1024,710,10,730,0
1025,710,10,730,0
1026,710,0,730,0
1027,710,0,730,0
1028,710,10,730,0
1029,720,10,730,0
1030,710,0,730,0
1031,710,0,720,0
1032,710,0,720,0
1033,710,0,720,0
1034,710,10,720,0
1035,720,10,720,0
1036,720,0,730,0
1037,710,0,730,0
1038,710,0,730,0
1039,720,0,730,0
1040,710,0,730,0
1041,710,0,730,0
1042,710,0,720,0
1043,710,0,730,0
1044,710,0,730,0
1045,710,0,730,0
1046,710,0,730,0
1047,710,0,730,0
1048,700,0,730,0
1049,710,0,730,0
1050,720,0,730,0
1051,700,0,730,0
1052,710,0,730,0
1053,710,0,730,0
1054,710,0,730,0
1055,710,0,720,0
1056,710,0,730,0
1057,720,0,730,0
1058,710,0,730,0
1059,700,0,720,0
1060,710,0,730,0
1061,720,0,730,0
1062,710,0,730,0
1063,720,0,720,0
1064,710,0,730,0
1065,700,0,730,0
1066,720,0,730,0
1067,710,0,720,0
1068,710,0,730,0
1069,700,0,730,0
1070,720,0,730,0
1071,710,0,730,0
1072,710,0,730,0
1073,710,0,730,0
1074,710,0,730,0
1075,720,0,730,0
1076,710,0,730,0
1077,710,0,720,0
1078,710,0,720,0
1079,710,0,730,0
1080,710,0,730,0
1081,710,0,730,0
1082,710,0,730,0
1083,710,0,730,0
1084,720,0,730,0
1085,720,0,730,0
1086,720,0,730,0
1087,710,0,720,0
1088,720,0,720,0
1089,720,0,720,0
1090,720,0,720,0
1091,710,0,730,0
1092,720,0,730,0
1093,720,0,730,0
1094,710,0,730,0
1095,710,0,720,0
1096,720,0,720,0
1097,720,0,720,0
1098,710,0,730,0
1099,710,0,730,0
1100,710,0,730,0
1101,710,0,730,0
1102,710,-10,730,0
1103,710,0,720,0
1104,710,0,730,0
1105,720,-10,720,0
1106,710,0,730,0
1107,710,-10,730,0
1108,710,-10,730,0
1109,710,-10,730,0
1110,720,0,730,0
1111,720,0,730,0
1112,700,0,720,0
1113,700,-10,720,0
1114,710,-10,730,0
1115,710,-10,730,0
1116,710,-10,730,0
1117,710,-10,730,0
1118,700,-10,730,0
1119,710,-10,730,0
1120,710,-10,730,0
1121,710,-10,730,0
1122,710,-10,730,0
1123,710,0,720,0
1124,710,0,730,0
1125,710,-10,730,0
1126,710,-10,730,0
1127,720,0,730,0
1128,710,0,720,0
1129,710,-10,720,0
1130,710,-10,720,0
1131,710,-10,730,0
1132,720,-10,730,0
1133,710,-10,730,0
1134,700,-10,720,0
1135,700,-10,720,0
1136,690,-10,710,0
1137,710,-20,700,0
1138,730,10,750,0
1139,610,0,690,0
1140,720,-10,740,0
1141,720,-10,750,0
1142,680,-10,750,0
1143,650,0,740,0
1144,670,0,740,0
1145,670,0,730,0
1146,700,0,740,0
1147,680,10,730,0
1148,710,20,740,0
1149,680,20,730,0
1150,680,30,730,0
1151,720,40,740,0
1152,680,50,730,0
1153,710,50,740,0
1154,700,60,740,0
1155,710,50,740,0
1156,700,50,740,0
1157,700,60,730,0
1158,720,80,730,0
1159,730,70,740,0
1160,730,60,730,0
1161,700,50,720,0
1162,730,50,730,0
1163,720,40,730,0
1164,680,30,720,0
1165,720,20,720,0
1166,700,10,720,0
1167,700,10,730,0
1168,690,10,720,0
1169,710,10,720,0
1170,710,10,720,0
1171,720,10,730,0
1172,720,10,730,0
1173,710,10,730,0
1174,720,0,720,0
1175,710,0,720,0
1176,720,0,720,0
1177,720,0,720,0
1178,720,0,720,0
1179,720,0,710,0
1180,710,0,720,0
1181,730,0,730,0
1182,690,0,720,0
1183,720,0,690,0
1184,720,0,700,0
1185,660,10,720,0
1186,720,10,730,0
1187,750,-10,740,0
1188,710,0,730,0
1189,670,-10,730,0
1190,730,20,690,0
1191,700,0,740,0
1192,720,0,750,0
1193,720,-10,750,0
1194,730,0,740,0
1195,720,40,730,0
1196,700,-10,740,0
1197,720,0,680,0
1198,710,10,690,0
1199,730,30,700,0
1200,740,10,700,0
1201,730,0,710,0
1202,730,0,720,0
1203,720,0,700,0
1204,720,0,710,0
1205,730,0,720,0
1206,720,0,720,0
1207,730,0,710,0
1208,720,0,710,0
1209,730,0,710,0
1210,730,0,710,0
1211,730,0,710,0
1212,730,0,710,0
1213,730,0,710,0
1214,730,0,720,0
1215,720,0,710,0
1216,720,0,700,0
1217,730,0,710,0
1218,720,0,700,0
1219,730,0,700,0
1220,730,0,710,0
1221,720,0,720,0
1222,720,0,710,0
1223,720,0,710,0
1224,730,0,700,0
1225,730,0,710,2000
1226,720,0,700,2000
1227,730,0,710,2000
1228,730,0,710,2000
1229,730,0,710,2000
1230,730,0,700,2000
1231,730,0,700,2000
1232,730,0,710,2000
1233,730,0,710,2000
1234,730,0,710,2000
1235,730,0,710,2000
1236,730,0,700,2000
1237,730,0,710,2000
1238,730,0,710,2000
1239,730,0,710,2000
1240,730,-10,710,2000
1241,730,0,700,2000
1242,730,0,700,2000
1243,730,0,700,2000
1244,730,0,710,2000
1245,740,0,700,2000
1246,700,0,660,2000
1247,640,90,590,2000
1248,600,150,610,2000
1249,660,220,770,2000
1250,720,260,940,2000
1251,690,220,1200,2000
1252,640,100,1440,2000
1253,760,10,1570,2000
1254,940,-80,1580,2000
1255,1130,-140,1490,2000
1256,1250,-230,1310,2000
1257,1190,-240,850,2000
1258,1070,-220,610,2000
1259,1030,-230,350,2000
1260,690,-230,190,2000
1261,550,-170,160,2000
1262,260,-120,110,2000
1263,10,-50,140,2000
1264,-120,-20,290,2000
1265,-320,80,490,2000
1266,-280,60,620,2000
1267,-330,100,800,2000
1268,-160,70,790,2000
1269,-20,140,1000,2000
1270,-40,40,1020,2000
1271,90,50,1190,2000
1272,300,-40,1190,2000
1273,290,0,1220,2000
1274,430,-100,1140,2000
1275,590,-130,1130,2000
1276,500,-160,1020,2000
1277,710,-130,1060,2000
1278,580,-130,1000,2000
1279,600,-190,1010,2000
1280,670,-130,970,2000
1281,630,-130,920,2000
1282,770,-140,840,2000
1283,720,-150,780,2000
1284,620,-120,800,2000
1285,620,-100,820,2000
1286,520,-30,830,2000
1287,530,0,840,2000
1288,530,30,860,2000
1289,530,50,870,2000
1290,540,40,870,2000
1291,500,30,860,2000
1292,530,30,860,2000
1293,520,30,850,2000
1294,560,0,840,2000
1295,580,-10,830,2000
1296,580,-10,840,2000
1297,580,-20,840,2000
1298,600,-20,840,2000
1299,580,0,850,2000
1300,540,10,810,2000
1301,520,-10,850,2000
1302,570,30,790,2000
1303,510,-20,850,2000
1304,560,0,870,2000
1305,570,10,880,2000
1306,620,0,910,2000
1307,590,-50,790,2000
1308,550,60,730,2000
1309,570,0,760,2000
1310,550,0,820,2000
1311,540,40,860,2000
1312,560,40,880,2000
1313,590,-30,890,2000
1314,620,20,780,2000
1315,600,0,750,2000
1316,620,10,730,2000
1317,620,10,770,2000
1318,600,-10,780,2000
1319,640,0,780,2000
1320,620,0,780,2000
1321,640,10,770,2000
1322,670,0,780,2000
1323,650,-20,760,2000
1324,640,-10,780,2000
1325,610,-10,770,0
1326,620,-10,770,0
1327,620,0,770,0
1328,650,0,770,0
1329,650,0,760,0
1330,650,-10,760,0
1331,660,-20,760,0
1332,650,-20,760,0
1333,660,-30,760,0
1334,650,-30,750,0
1335,660,-30,750,0
1336,670,-30,750,0
1337,660,-30,750,0
1338,660,-40,760,0
1339,660,-30,760,0
1340,660,-30,750,0
1341,660,-30,750,0
1342,660,-40,750,0
1343,670,-60,740,0
1344,670,-70,730,0
1345,700,-80,730,0
1346,720,-110,730,0
1347,670,-120,700,0
1348,700,-130,670,0
1349,700,-130,660,0
1350,670,-120,690,0
1351,730,-100,700,0
1352,720,-50,750,0
1353,720,-30,770,0
1354,680,-10,820,0
1355,690,-10,800,0
1356,700,0,760,0
1357,720,-30,730,0
1358,740,-50,700,0
1359,730,-60,710,0
1360,700,-60,710,0
1361,710,-70,700,0
1362,720,-80,700,0
1363,730,-90,730,0
1364,720,-80,730,0
1365,720,-70,720,0
1366,710,-70,710,0
1367,700,-80,720,0
1368,720,-100,730,0
1369,720,-80,730,0
1370,710,-60,720,0
1371,700,-60,720,0
1372,680,-70,710,0
1373,710,-100,710,0
1374,720,-120,720,0
1375,720,-100,720,0
1376,730,-90,730,0
1377,720,-80,730,0
1378,720,-80,740,0
1379,690,-80,720,0
1380,720,-90,730,0
1381,690,-80,730,0
1382,700,-90,730,0
1383,670,-100,720,0
1384,680,-100,720,0
1385,720,-90,720,0
1386,730,-60,730,0
1387,740,-40,720,0
1388,710,-30,700,0
1389,700,-40,700,0
1390,720,-40,710,0
1391,730,-40,730,0
1392,730,-30,740,0
1393,730,-30,730,0
1394,710,-40,740,0
1395,670,-70,730,0
1396,690,-110,740,0
1397,710,-120,740,0
1398,710,-120,740,0
1399,710,-120,730,0
1400,700,-110,730,0
1401,700,-90,730,0
1402,670,-80,740,0
1403,650,-100,730,0
1404,680,-110,740,0
1405,680,-90,740,0
1406,700,-60,740,0
1407,680,-50,750,0
1408,620,-50,750,0
1409,630,-70,750,0
1410,670,-80,750,0
1411,690,-70,760,0
1412,690,-90,750,0
1413,670,-90,740,0
1414,650,-70,740,0
1415,670,-70,750,0
1416,660,-70,750,0
1417,660,-70,750,0
1418,670,-80,740,0
1419,670,-70,730,0
1420,670,-50,750,0
1421,680,-40,770,0
1422,660,-40,780,0
1423,660,-50,780,0
1424,660,-50,760,0
1425,670,-60,750,0
1426,670,-50,750,0
1427,670,-60,740,0
1428,660,-70,740,0
1429,640,-110,730,0
1430,650,-110,740,0
1431,660,-90,750,0
1432,660,-100,750,0
1433,660,-120,760,0
1434,650,-100,780,0
1435,630,-90,770,0
1436,650,-90,760,0
1437,650,-80,760,0
1438,660,-70,750,0
1439,660,-80,750,0
1440,650,-90,750,0
1441,640,-90,750,0
1442,650,-90,760,0
1443,660,-80,770,0
1444,660,-80,770,0
1445,650,-80,750,0
1446,660,-80,760,0
1447,660,-70,760,0
1448,660,-70,750,0
1449,660,-80,750,0
1450,630,-70,760,0
1451,660,-70,760,0
1452,640,-70,760,0
1453,660,-70,740,0
1454,670,-70,740,0
1455,670,-70,760,0
1456,670,-80,750,0
1457,670,-60,750,0
1458,670,-70,760,0
1459,690,-60,750,0
1460,670,-60,740,0
1461,680,-60,740,0
1462,680,-60,750,0
1463,660,-80,740,0
1464,680,-50,730,0
1465,630,-60,740,0
1466,720,-60,730,0
1467,660,-70,760,0
1468,670,-60,730,0
1469,660,-10,750,0
1470,720,-60,740,0
1471,660,-50,760,0
1472,680,-60,760,0
1473,670,-50,760,0
1474,660,-40,760,0
1475,750,-50,750,0
1476,620,-60,720,0
1477,660,-40,730,0
1478,700,-50,750,0
1479,650,-50,750,0
1480,700,-30,740,0
1481,710,-30,740,0
1482,650,-40,760,0
1483,680,-40,750,0
1484,670,-40,740,0
1485,660,-40,740,0
1486,670,-50,740,0
1487,680,-50,740,0
1488,680,-40,750,0
1489,660,-40,750,0
1490,660,-60,740,0
1491,670,-70,740,0
1492,680,-60,750,0
1493,680,-60,740,0
1494,660,-60,740,0
1495,670,-50,750,0
1496,670,-40,750,0
1497,660,-40,750,0
1498,690,-60,750,0
1499,680,-60,740,0
1500,680,-50,740,2000
1501,660,-40,740,2000
1502,650,-60,740,2000
1503,690,-70,740,2000
1504,700,-60,750,2000
1505,670,-70,750,2000
1506,660,-70,740,2000
1507,670,-70,750,2000
1508,680,-50,760,2000
1509,670,-50,760,2000
1510,650,-70,750,2000
1511,660,-70,730,2000
1512,670,-60,740,2000
1513,690,-60,750,2000
1514,670,-70,750,2000
1515,640,-80,750,2000
1516,650,-70,740,2000
1517,660,-50,730,2000
1518,680,-30,710,2000
1519,670,-20,740,2000
1520,630,0,740,2000
1521,600,30,740,2000
1522,630,90,750,2000
1523,670,130,820,2000
1524,670,170,900,2000
1525,610,140,1040,2000
1526,510,110,1190,2000
1527,710,50,1400,2000
1528,910,-20,1620,2000
1529,980,-90,1650,2000
1530,1130,-220,1510,2000
1531,1450,-310,1240,2000
1532,1140,-300,850,2000
1533,1010,-320,560,2000
1534,940,-330,230,2000
1535,640,-230,90,2000
1536,470,-100,30,2000
1537,290,120,40,2000
1538,-30,170,50,2000
1539,-160,220,160,2000
1540,-270,250,310,2000
1541,-190,280,630,2000
1542,-410,470,730,2000
1543,-70,380,1020,2000
1544,-90,460,980,2000
1545,340,350,1380,2000
1546,200,330,1400,2000
1547,400,220,1540,2000
1548,470,120,1450,2000
1549,540,-90,1290,2000
1550,750,-110,1140,2000
1551,550,-130,1020,2000
1552,700,-210,950,2000
1553,630,-220,860,2000
1554,650,-210,840,2000
1555,660,-200,790,2000
1556,490,-170,850,2000
1557,550,-110,870,2000
1558,560,-70,890,2000
1559,520,-20,880,2000
1560,570,-10,880,2000
1561,530,-10,860,2000
1562,520,-10,860,2000
1563,550,-10,870,2000
1564,540,0,850,2000
1565,580,-10,840,2000
1566,600,-20,820,2000
1567,580,10,840,2000
1568,620,-10,820,2000
1569,610,-10,820,2000
1570,580,-10,800,2000
1571,590,-10,780,2000
1572,590,-20,830,2000
1573,550,10,730,2000
1574,600,10,820,2000
1575,590,-20,830,2000
1576,670,20,860,2000
1577,620,10,860,2000
1578,680,0,760,2000
1579,620,-10,730,2000
1580,630,30,740,2000
1581,590,0,800,2000
1582,610,10,830,2000
1583,600,20,840,2000
1584,610,10,840,2000
1585,660,10,790,2000
1586,630,10,770,2000
1587,660,20,740,2000
1588,700,10,740,2000
1589,630,0,740,2000
1590,630,0,760,2000
1591,650,-10,760,2000
1592,640,0,760,2000
1593,670,0,750,2000
1594,660,-10,760,2000
1595,640,-10,750,2000
1596,660,-20,750,2000
1597,660,-20,760,2000
1598,660,-20,760,2000
1599,650,-20,760,2000
1600,650,-30,760,0
1601,670,-20,750,0
1602,660,-20,760,0
1603,660,-20,760,0
1604,660,-20,750,0
1605,660,-20,760,0
1606,660,-20,760,0
1607,670,-30,750,0
1608,670,-20,750,0
1609,670,-20,750,0
1610,670,-30,750,0
1611,660,-30,750,0
1612,660,-20,750,0
1613,670,-20,740,0
1614,670,-20,740,0
1615,670,-20,750,0
1616,670,-10,750,0
1617,670,-10,740,0
1618,670,-10,740,0
1619,690,-10,740,0
1620,670,-10,740,0
1621,680,-10,750,0
1622,670,-10,740,0
1623,680,-10,740,0
1624,680,-20,750,0
1625,680,-10,740,0
1626,680,-10,740,0
1627,680,-10,740,0
1628,670,-10,740,0
1629,680,-10,740,0
1630,680,-20,740,0
1631,680,-20,740,0
1632,680,-20,740,0
1633,680,-20,740,0
1634,690,-20,740,0
1635,680,-20,750,0
1636,670,-30,740,0
1637,690,-30,740,0
1638,680,-20,740,0
1639,680,-30,740,0
1640,670,-40,740,0
1641,680,-30,740,0
1642,680,-30,740,0
1643,680,-30,740,0
1644,680,-30,740,0
1645,680,-30,740,0
1646,680,-40,740,0
1647,680,-30,740,0
1648,680,-40,740,0
1649,680,-40,740,0
1650,670,-40,740,0
1651,680,-40,740,0
1652,680,-30,740,0
1653,680,-40,740,0
1654,680,-40,750,0
1655,690,-40,750,0
1656,680,-40,750,0
1657,680,-40,740,0
1658,680,-30,740,0
1659,680,-40,740,0
1660,670,-40,740,0
1661,680,-30,740,0
1662,680,-40,740,0
1663,670,-40,740,0
1664,680,-40,740,0
1665,680,-40,740,0
1666,670,-40,740,0
1667,680,-40,740,0
1668,680,-40,740,0
1669,680,-40,740,0
1670,680,-30,740,0
1671,680,-30,740,0
1672,670,-40,740,0
1673,680,-40,740,0
1674,690,-30,740,0
1675,680,-40,740,0
1676,670,-40,740,0
1677,680,-40,740,0
1678,690,-30,740,0
1679,690,-30,740,0
1680,680,-40,740,0
1681,680,-40,740,0
1682,680,-40,740,0
1683,680,-40,740,0
1684,690,-40,740,0
1685,680,-40,740,0
1686,680,-40,740,0
1687,680,-40,750,0
1688,680,-40,740,0
1689,680,-40,740,0
1690,680,-40,740,0
1691,680,-30,740,0
1692,680,-40,740,0
1693,670,-40,740,0
1694,680,-40,740,0
1695,680,-50,740,0
1696,680,-50,740,0
1697,680,-40,740,0
1698,690,-40,740,0
1699,670,-40,740,0
1700,680,-40,740,0
1701,680,-40,740,0
1702,690,-40,740,0
1703,680,-40,740,0
1704,680,-50,740,0
1705,680,-40,740,0
1706,690,-40,740,0
1707,680,-40,740,0
1708,680,-40,740,0
1709,680,-50,740,0
1710,680,-40,740,0
1711,680,-40,740,0
1712,680,-40,740,0
1713,670,-40,740,0
1714,690,-40,740,0
1715,680,-40,740,0
1716,670,-40,740,0
1717,680,-40,730,0
1718,700,-40,740,0
1719,680,-50,750,0
1720,650,-30,740,0
1721,710,-40,750,0
1722,640,-50,750,0
1723,700,-20,740,0
1724,660,-60,750,0
1725,650,-20,740,0
1726,690,-40,730,0
1727,660,-40,750,0
1728,690,-20,740,0
1729,670,-40,740,0
1730,640,-30,750,0
1731,660,-20,770,0
1732,670,-20,770,0
1733,690,-40,770,0
1734,720,-30,760,0
1735,680,-30,730,0
1736,690,-30,730,0
1737,660,-40,710,0
1738,710,-20,710,0
1739,700,-30,730,0
1740,670,-20,720,0
1741,720,-30,730,0
1742,710,-30,730,0
1743,710,-30,730,0
1744,720,-30,730,0
1745,710,-30,730,0
1746,700,-30,730,0
1747,700,-30,730,0
1748,710,-30,730,0
1749,710,-30,720,0
1750,710,-30,720,2000
1751,710,-30,730,2000
1752,710,-30,730,2000
1753,700,-30,730,2000
1754,710,-30,730,2000
1755,720,-20,730,2000
1756,710,-30,730,2000
1757,700,-30,720,2000
1758,710,-30,730,2000
1759,720,-30,730,2000
1760,710,-30,730,2000
1761,720,-30,730,2000
1762,710,-30,730,2000
1763,710,-30,730,2000
1764,710,-30,730,2000
1765,700,-30,720,2000
1766,700,-30,710,2000
1767,710,-20,710,2000
1768,720,0,710,2000
1769,690,30,740,2000
1770,590,70,760,2000
1771,500,110,770,2000
1772,530,190,890,2000
1773,720,200,1070,2000
1774,730,100,1310,2000
1775,680,0,1480,2000
1776,900,-20,1600,2000
1777,980,-190,1600,2000
1778,990,-220,1420,2000
1779,1000,-340,1180,2000
1780,930,-380,900,2000
1781,850,-400,570,2000
1782,740,-310,310,2000
1783,600,-260,140,2000
1784,380,-170,70,2000
1785,150,-50,80,2000
1786,-110,-30,130,2000
1787,-280,20,290,2000
1788,-370,50,470,2000
1789,-430,110,660,2000
1790,-350,170,800,2000
1791,-330,130,880,2000
1792,-190,80,980,2000
1793,-10,40,1050,2000
1794,30,20,1210,2000
1795,140,40,1270,2000
1796,200,10,1410,2000
1797,230,20,1310,2000
1798,500,-70,1340,2000
1799,290,-80,1120,2000
1800,580,-130,1110,2000
1801,480,-190,1040,2000
1802,530,-150,1020,2000
1803,610,-190,950,2000
1804,510,-200,870,2000
1805,660,-200,840,2000
1806,560,-180,790,2000
1807,540,-130,820,2000
1808,520,-100,860,2000
1809,460,-70,870,2000
1810,500,-40,890,2000
1811,470,-20,910,2000
1812,480,-20,880,2000
1813,490,-20,880,2000
1814,480,-20,880,2000
1815,520,-30,890,2000
1816,530,-40,880,2000
1817,510,-30,870,2000
1818,580,-50,870,2000
1819,550,-30,860,2000
1820,500,-10,820,2000
1821,530,-30,840,2000
1822,500,-10,850,2000
1823,510,-50,870,2000
1824,590,0,870,2000
1825,540,-20,870,2000
1826,560,20,900,2000
1827,530,-30,870,2000
1828,580,-10,750,2000
1829,500,20,760,2000
1830,600,-30,830,2000
1831,550,-30,870,2000
1832,570,20,880,2000
1833,510,-10,880,2000
1834,600,-30,860,2000
1835,580,0,790,2000
1836,580,-10,790,2000
1837,570,-10,790,2000
1838,580,0,780,2000
1839,590,-10,800,2000
1840,590,-20,810,2000
1841,600,-10,810,2000
1842,590,-20,810,2000
1843,610,-20,800,2000
1844,600,-10,800,2000
1845,600,-10,790,2000
1846,590,-10,790,2000
1847,600,-10,790,2000
1848,590,-10,790,2000
1849,600,-10,780,2000
1850,600,-10,790,0
1851,600,-10,800,0
1852,590,-10,800,0
1853,600,-10,790,0
1854,620,-10,790,0
1855,600,-10,800,0
1856,590,-10,800,0
1857,600,-20,790,0
1858,600,-10,780,0
1859,600,-10,790,0
1860,610,-10,780,0
1861,600,-10,780,0
1862,590,-10,780,0
1863,600,-10,790,0
1864,610,-10,790,0
1865,610,-10,800,0
1866,610,-10,800,0
1867,610,-10,790,0
1868,600,-10,780,0
1869,610,-10,780,0
1870,600,-10,780,0
1871,610,-10,780,0
1872,610,-10,780,0
1873,610,-10,790,0
1874,600,-20,790,0
1875,600,-10,780,0
1876,600,-10,780,0
1877,620,-10,770,0
1878,600,-10,780,0
1879,610,-10,780,0
1880,610,-20,780,0
1881,620,-10,790,0
1882,610,-10,790,0
1883,590,-10,770,0
1884,590,-10,760,0
1885,610,-10,770,0
1886,610,-10,780,0
1887,640,-10,820,0
1888,630,0,840,0
1889,610,30,790,0
1890,570,20,760,0
1891,570,-10,740,0
1892,590,-60,740,0
1893,650,-90,750,0
1894,670,-80,770,0
1895,690,-70,780,0
1896,660,-60,780,0
1897,650,-70,770,0
1898,660,-50,770,0
1899,660,-40,760,0
1900,670,-30,770,0
1901,670,-20,770,0
1902,670,-10,780,0
1903,660,-10,780,0
1904,640,-10,770,0
1905,620,-30,760,0
1906,620,-50,750,0
1907,630,-60,740,0
1908,670,-70,740,0
1909,660,-80,740,0
1910,670,-90,740,0
1911,670,-100,750,0
1912,670,-100,750,0
1913,680,-90,750,0
1914,680,-90,750,0
1915,680,-80,760,0
1916,700,-70,760,0
1917,680,-60,770,0
1918,660,-50,770,0
1919,630,-60,760,0
1920,630,-60,750,0
1921,650,-60,750,0
1922,660,-70,760,0
1923,650,-70,760,0
1924,620,-70,770,0
1925,630,-70,770,0
1926,620,-90,770,0
1927,600,-110,780,0
1928,600,-120,780,0
1929,660,-100,780,0
1930,670,-110,760,0
1931,650,-100,750,0
1932,630,-100,740,0
1933,610,-90,750,0
1934,590,-90,770,0
1935,600,-110,780,0
1936,620,-110,790,0
1937,630,-120,780,0
1938,630,-120,780,0
1939,630,-120,780,0
1940,630,-120,770,0
1941,620,-110,770,0
1942,620,-100,770,0
1943,610,-90,780,0
1944,600,-100,790,0
1945,590,-90,790,0
1946,610,-90,790,0
1947,600,-100,780,0
1948,600,-110,780,0
1949,620,-110,780,0
1950,630,-120,780,0
1951,620,-120,780,0
1952,620,-110,780,0
1953,620,-100,790,0
1954,610,-100,780,0
1955,610,-110,780,0
1956,610,-100,780,0
1957,600,-110,780,0
1958,610,-110,770,0
1959,620,-110,770,0
1960,620,-110,770,0
1961,610,-110,780,0
1962,620,-110,780,0
1963,620,-110,780,0
1964,610,-120,780,0
1965,620,-110,770,0
1966,630,-110,780,0
1967,620,-110,780,0
1968,610,-110,780,0
1969,610,-110,790,0
1970,620,-110,780,0
1971,610,-120,770,0
1972,620,-120,770,0
1973,630,-110,770,0
1974,620,-120,770,0
1975,610,-120,780,0
1976,610,-120,780,0
1977,630,-120,780,0
1978,620,-120,770,0
1979,610,-120,770,0
1980,610,-120,770,0
1981,620,-120,770,0
1982,610,-120,780,0
1983,620,-120,780,0
1984,620,-120,780,0
1985,620,-110,760,0
1986,630,-120,760,0
1987,630,-110,760,0
1988,620,-110,770,0
1989,610,-110,780,0
1990,600,-100,790,0
1991,600,-100,790,0
1992,610,-100,790,0
1993,610,-110,790,0
1994,610,-110,780,0
1995,610,-110,780,0
1996,610,-100,770,0
1997,610,-100,770,0
1998,620,-110,770,0
1999,630,-100,770,0
2000,630,-100,770,0
2001,620,-90,780,0
2002,640,-80,780,0
2003,620,-70,790,0
2004,620,-60,790,0
2005,620,-60,790,0
2006,600,-50,790,0
2007,600,-60,780,0
2008,610,-60,770,0
2009,620,-60,770,0
2010,620,-60,780,0
2011,610,-70,780,0
2012,610,-70,780,0
2013,620,-60,780,0
2014,620,-60,780,0
2015,620,-60,770,0
2016,620,-60,780,0
2017,630,-60,780,0
2018,610,-50,770,0
2019,620,-60,770,0
2020,610,-50,780,0
2021,620,-60,780,0
2022,630,-60,780,0
2023,610,-60,780,0
2024,630,-60,780,0
2025,640,-60,770,0
2026,600,-60,770,0
2027,620,-60,760,0
2028,650,-60,770,0
2029,630,-60,770,0
2030,630,-50,780,0
2031,660,-50,780,0
2032,600,-60,770,0
2033,650,-40,760,0
2034,640,-60,760,0
2035,660,-60,750,0
2036,680,-50,760,0
2037,660,-50,750,0
2038,660,-50,740,0
2039,670,-50,750,0
2040,670,-60,750,0
2041,670,-60,750,0
2042,660,-40,750,0
2043,660,-50,750,0
2044,670,-40,750,0
2045,650,-60,750,0
2046,620,-40,760,0
2047,640,-50,760,0
2048,690,-40,750,0
2049,660,-40,760,0
2050,650,-40,780,0
2051,650,-30,780,0
2052,620,-30,770,0
2053,650,-40,780,0
2054,660,-10,780,0
2055,620,-40,770,0
2056,680,-30,730,0
2057,660,-30,730,0
2058,660,-20,740,0
2059,710,-30,740,0
2060,670,-30,750,0
2061,680,-20,750,0
2062,680,-30,750,0
2063,660,-30,750,0
2064,690,-20,740,0
2065,660,-30,740,0
2066,680,-20,740,0
2067,680,-40,750,0
2068,680,-30,750,0
2069,680,-40,740,0
2070,670,-40,740,0
2071,670,-30,740,0
2072,670,-30,740,0
2073,680,-30,740,0
2074,670,-30,740,0
2075,680,-40,750,2000
2076,670,-40,740,2000
2077,690,-40,740,2000
2078,680,-40,750,2000
2079,670,-40,740,2000
2080,680,-40,740,2000
2081,670,-40,740,2000
2082,680,-40,740,2000
2083,680,-40,740,2000
2084,680,-40,740,2000
2085,680,-40,740,2000
2086,680,-40,740,2000
2087,680,-40,750,2000
2088,680,-40,750,2000
2089,670,-40,740,2000
2090,680,-50,740,2000
2091,670,-40,740,2000
2092,670,-40,730,2000
2093,690,-20,720,2000
2094,610,10,740,2000
2095,540,100,710,2000
2096,450,130,770,2000
2097,360,210,970,2000
2098,650,250,1330,2000
2099,910,160,1580,2000
2100,880,10,1730,2000
2101,1310,-160,1550,2000
2102,1260,-240,1250,2000
2103,1240,-290,960,2000
2104,1270,-270,640,2000
2105,1030,-260,290,2000
2106,770,-260,100,2000
2107,480,-240,0,2000
2108,260,-170,-20,2000
2109,90,-80,10,2000
2110,-110,30,140,2000
2111,-210,50,330,2000
2112,-210,90,530,2000
2113,-170,180,740,2000
2114,-10,120,920,2000
2115,-70,240,1120,2000
2116,80,130,1230,2000
2117,210,180,1360,2000
2118,210,110,1430,2000
2119,420,80,1390,2000
2120,480,-10,1370,2000
2121,470,0,1260,2000
2122,670,-160,1210,2000
2123,480,-180,1090,2000
2124,580,-200,1010,2000
2125,590,-180,920,2000
2126,630,-210,810,2000
2127,590,-220,760,2000
2128,540,-150,740,2000
2129,490,-130,780,2000
2130,410,-80,860,2000
2131,380,-20,920,2000
2132,400,-10,960,2000
2133,420,0,950,2000
2134,430,0,940,2000
2135,420,-10,950,2000
2136,440,-20,960,2000
2137,450,-20,950,2000
2138,460,-20,930,2000
2139,460,-10,900,2000
2140,470,-20,890,2000
2141,460,-10,890,2000
2142,460,-10,880,2000
2143,460,-30,860,2000
2144,440,-10,870,2000
2145,470,-20,870,2000
2146,470,-10,910,2000
2147,460,-40,890,2000
2148,470,-10,920,2000
2149,460,-30,920,2000
2150,460,-20,950,2000
2151,470,-10,970,2000
2152,470,-20,950,2000
2153,490,-20,880,2000
2154,420,-20,800,2000
2155,430,10,790,2000
2156,430,-30,870,2000
2157,450,30,920,2000
2158,470,0,950,2000
2159,460,-70,920,2000
2160,470,-30,870,2000
2161,510,0,880,2000
2162,460,0,890,2000
2163,510,-10,880,2000
2164,490,-10,850,2000
2165,520,0,840,2000
2166,540,-10,870,2000
2167,530,-10,870,2000
2168,530,-10,860,2000
2169,520,-10,860,2000
2170,510,-10,860,2000
2171,530,0,870,2000
2172,530,0,860,2000
2173,530,0,860,2000
2174,520,-10,860,2000
2175,520,-10,860,0
2176,520,0,850,0
2177,530,0,860,0
2178,520,0,860,0
2179,510,0,860,0
2180,520,0,870,0
2181,520,0,860,0
2182,520,0,860,0
2183,520,0,860,0
2184,520,0,860,0
2185,520,0,860,0
2186,520,0,860,0
2187,530,0,860,0
2188,520,0,860,0
2189,510,0,860,0
2190,520,0,860,0
2191,520,0,860,0
2192,520,0,860,0
2193,520,0,860,0
2194,520,0,860,0
2195,520,0,860,0
2196,530,0,860,0
2197,520,0,860,0
2198,530,0,860,0
2199,520,0,860,0
2200,530,0,860,0
2201,550,0,850,0
2202,530,0,850,0
2203,530,0,860,0
2204,520,0,850,0
2205,540,0,850,0
2206,530,0,850,0
2207,530,0,850,0
2208,530,0,850,0
2209,540,0,850,0
2210,540,-10,850,0
2211,530,0,860,0
2212,540,0,850,0
2213,530,0,850,0
2214,540,0,850,0
2215,530,-10,850,0
2216,540,0,850,0
2217,540,0,850,0
2218,530,-10,850,0
2219,530,-10,850,0
2220,550,-10,850,0
2221,530,-10,850,0
2222,540,-10,850,0
2223,540,0,850,0
2224,540,-10,850,0
2225,540,-10,850,0
2226,550,0,850,0
2227,550,0,850,0
2228,540,-10,850,0
2229,540,-10,850,0
2230,540,-10,850,0
2231,550,-10,850,0
2232,540,-10,840,0
2233,550,-10,840,0
2234,550,-10,840,0
2235,550,-10,850,0
2236,560,-10,850,0
2237,540,-10,850,0
2238,540,-10,840,0
2239,550,-10,840,0
2240,550,-10,840,0
2241,550,-10,850,0
2242,540,-10,850,0
2243,550,-10,840,0
2244,550,-10,850,0
2245,540,-10,850,0
2246,550,-10,840,0
2247,550,-10,850,0
2248,540,-10,840,0
2249,540,-10,840,0
2250,550,-10,850,0
2251,550,-10,850,0
2252,550,-10,850,0
2253,540,-10,840,0
2254,560,-10,840,0
2255,550,-10,850,0
2256,540,-10,850,0
2257,550,-10,840,0
2258,550,-10,840,0
2259,560,-10,850,0
2260,540,-10,850,0
2261,550,-10,840,0
2262,560,-10,840,0
2263,560,-10,840,0
2264,560,-10,840,0
2265,550,-10,850,0
2266,560,-10,840,0
2267,560,-10,840,0
2268,550,-10,840,0
2269,550,-10,840,0
2270,570,-10,840,0
2271,560,-10,840,0
2272,570,-10,840,0
2273,550,-10,830,0
2274,580,-10,820,0
2275,550,-10,840,0
2276,580,-30,860,0
2277,520,-10,840,0
2278,570,-40,810,0
2279,550,0,790,0
2280,630,-40,850,0
2281,570,0,840,0
2282,570,0,860,0
2283,520,-10,860,0
2284,550,0,870,0
2285,560,-20,880,0
2286,570,-20,870,0
2287,560,-10,810,0
2288,540,-30,790,0
2289,570,-20,790,0
2290,570,-20,830,0
2291,580,-10,810,0
2292,580,-20,810,0
2293,580,-10,820,0
2294,570,-20,830,0
2295,590,-20,830,0
2296,580,-10,820,0
2297,590,-10,810,0
2298,590,-10,810,0
2299,590,-20,800,0
2300,590,-20,800,2000
2301,590,-20,810,2000
2302,590,-20,810,2000
2303,590,-20,810,2000
2304,590,-20,810,2000
2305,590,-20,820,2000
2306,590,-20,810,2000
2307,590,-20,800,2000
2308,590,-20,810,2000
2309,590,-20,810,2000
2310,590,-20,810,2000
2311,590,-20,800,2000
2312,590,-20,810,2000
2313,590,-30,810,2000
2314,590,-20,820,2000
2315,590,-30,810,2000
2316,590,-20,810,2000
2317,590,-20,790,2000
2318,580,-20,780,2000
2319,580,0,780,2000
2320,560,40,800,2000
2321,440,90,850,2000
2322,340,90,940,2000
2323,430,110,1230,2000
2324,660,40,1550,2000
2325,700,-70,1750,2000
2326,850,-210,1750,2000
2327,910,-300,1580,2000
2328,1020,-340,1300,2000
2329,1140,-320,1000,2000
2330,1000,-330,630,2000
2331,970,-310,300,2000
2332,640,-180,90,2000
2333,400,-30,10,2000
2334,80,60,-20,2000
2335,-150,130,30,2000
2336,-280,170,200,2000
2337,-450,220,450,2000
2338,-410,240,670,2000
2339,-360,240,910,2000
2340,-200,200,970,2000
2341,-60,130,1180,2000
2342,10,40,1190,2000
2343,160,50,1370,2000
2344,120,60,1350,2000
2345,260,-40,1380,2000
2346,330,-120,1230,2000
2347,500,-160,1280,2000
2348,460,-180,1220,2000
2349,470,-240,1190,2000
2350,570,-190,1030,2000
2351,470,-180,930,2000
2352,580,-160,890,2000
2353,490,-170,830,2000
2354,450,-130,850,2000
2355,470,-100,870,2000
2356,450,-90,910,2000
2357,410,-60,910,2000
2358,380,-60,920,2000
2359,400,-50,940,2000
2360,410,-40,940,2000
2361,420,-30,920,2000
2362,450,-30,910,2000
2363,450,-30,940,2000
2364,450,-40,950,2000
2365,460,-40,940,2000
2366,430,-10,900,2000
2367,460,-40,880,2000
2368,400,-30,870,2000
2369,510,-10,930,2000
2370,350,-50,890,2000
2371,460,-30,910,2000
2372,430,-20,890,2000
2373,440,0,970,2000
2374,460,-20,1020,2000
2375,450,-40,970,2000
2376,460,-40,840,2000
2377,370,40,790,2000
2378,520,-60,870,2000
2379,390,10,910,2000
2380,460,10,950,2000
2381,430,0,960,2000
2382,510,-80,950,2000
2383,480,0,860,2000
2384,460,-20,870,2000
2385,460,-30,870,2000
2386,470,-10,870,2000
2387,560,0,860,2000
2388,510,-10,860,2000
2389,490,-20,880,2000
2390,500,-20,890,2000
2391,500,-20,860,2000
2392,510,-10,870,2000
2393,500,-10,880,2000
2394,490,-20,870,2000
2395,500,-10,860,2000
2396,500,-20,860,2000
2397,500,-20,870,2000
2398,500,-10,860,2000
2399,510,-10,870,2000
2400,510,-20,870,0
2401,500,-20,870,0
2402,500,-20,860,0
2403,510,-10,870,0
2404,520,-10,870,0
2405,510,-10,870,0
2406,500,-10,870,0
2407,500,-10,860,0
2408,510,-10,860,0
2409,510,0,860,0
2410,510,-10,870,0
2411,510,-10,870,0
2412,510,-10,870,0
2413,500,-10,860,0
2414,510,-10,860,0
2415,520,-10,860,0
2416,510,-10,860,0
2417,510,-10,870,0
2418,520,-10,870,0
2419,510,-10,860,0
2420,510,-10,860,0
2421,510,-10,860,0
2422,520,-10,860,0
2423,510,-10,860,0
2424,520,-10,870,0
2425,520,-10,860,0
2426,520,-10,870,0
2427,520,-10,870,0
2428,530,-10,860,0
2429,530,-10,860,0
2430,520,-10,860,0
2431,520,-10,860,0
2432,530,-20,860,0
2433,520,-20,860,0
2434,520,-10,860,0
2435,530,-20,860,0
2436,520,-20,860,0
2437,520,-10,860,0
2438,530,-10,860,0
2439,520,-10,850,0
2440,520,-10,860,0
2441,520,-10,860,0
2442,520,-10,860,0
2443,520,-20,860,0
2444,520,-20,860,0
2445,520,-10,860,0
2446,530,-20,860,0
2447,530,-20,860,0
2448,520,-20,860,0
2449,520,-20,860,0
2450,520,-10,850,0
2451,520,-10,860,0
2452,520,-10,860,0
2453,520,-10,860,0
2454,520,-10,860,0
2455,520,-10,860,0
2456,520,-10,860,0
2457,520,-10,860,0
2458,520,-10,860,0
2459,520,-20,860,0
2460,530,-20,860,0
2461,520,-10,860,0
2462,520,-10,860,0
2463,520,-10,860,0
2464,520,-10,860,0
2465,520,-10,860,0
2466,520,-10,860,0
2467,520,-20,860,0
2468,520,-20,860,0
2469,520,-20,860,0
2470,520,-20,860,0
2471,520,-20,860,0
2472,520,-20,860,0
2473,520,-20,860,0
2474,520,-10,860,0
2475,520,-10,860,0
2476,520,-10,860,0
2477,520,-20,860,0
2478,520,-20,860,0
2479,520,-10,860,0
2480,520,-10,860,0
2481,510,-10,860,0
2482,520,-20,860,0
2483,520,-10,860,0
2484,520,-20,860,0
2485,520,-20,850,0
2486,520,-20,850,0
2487,520,-20,860,0
2488,520,-20,860,0
2489,520,-20,860,0
2490,520,-20,860,0
2491,520,-10,860,0
2492,520,-20,860,0
2493,510,-20,850,0
2494,520,-20,850,0
2495,520,-20,860,0
2496,550,-20,870,0
2497,580,-30,920,0
2498,500,-20,910,0
2499,480,-20,860,0
2500,450,20,810,0
2501,510,0,840,0
2502,520,-50,860,0
2503,540,-70,850,0
2504,560,-120,840,0
2505,580,-100,850,0
2506,580,-40,850,0
2507,560,-40,850,0
2508,520,-10,870,0
2509,540,-10,870,0
2510,530,-10,870,0
2511,530,-10,860,0
2512,530,-20,850,0
2513,520,-20,840,0
2514,510,-30,840,0
2515,520,-40,830,0
2516,560,-40,830,0
2517,570,-50,830,0
2518,560,-40,840,0
2519,540,-30,840,0
2520,540,-10,850,0
2521,540,0,860,0
2522,550,20,870,0
2523,530,30,880,0
2524,500,40,880,0
2525,490,30,880,0
2526,510,10,870,0
2527,510,-10,850,0
2528,470,-10,810,0
2529,540,0,850,0
2530,540,-10,860,0
2531,550,-20,860,0
2532,540,0,870,0
2533,530,-10,870,0
2534,570,-10,850,0
2535,460,-20,840,0
2536,560,-10,830,0
2537,430,-20,820,0
2538,540,-10,880,0
2539,400,30,890,0
2540,560,-30,910,0
2541,410,10,910,0
2542,500,-20,920,0
2543,450,-20,910,0
2544,460,0,940,0
2545,450,0,930,0
2546,530,10,900,0
2547,530,-40,860,0
2548,460,-10,840,0
2549,510,0,860,0
2550,500,-10,870,0
2551,510,10,850,0
2552,510,0,860,0
2553,530,-10,870,0
2554,500,-10,870,0
2555,520,-10,860,0
2556,520,-10,860,0
2557,520,-10,860,0
2558,510,-20,860,0
2559,520,-20,860,0
2560,520,-20,860,0
2561,520,-20,860,0
2562,520,-20,860,0
2563,520,-10,860,0
2564,520,-10,860,0
2565,520,-20,860,0
2566,520,-20,860,0
2567,520,-20,860,0
2568,520,-20,860,0
2569,520,-20,860,0
2570,520,-20,860,0
2571,520,-20,860,0
2572,510,-20,860,0
2573,520,-20,860,0
2574,520,-20,860,0
2575,520,-20,860,2000
2576,530,-30,860,2000
2577,520,-20,860,2000
2578,520,-20,860,2000
2579,520,-20,860,2000
2580,520,-20,860,2000
2581,520,-20,850,2000
2582,520,-30,860,2000
2583,520,-20,860,2000
2584,520,-20,860,2000
2585,520,-20,860,2000
2586,520,-20,860,2000
2587,520,-20,860,2000
2588,520,-20,860,2000
2589,510,-20,860,2000
2590,520,-20,860,2000
2591,520,-20,860,2000
2592,510,-20,850,2000
2593,510,-10,840,2000
2594,470,0,860,2000
2595,420,80,870,2000
2596,260,110,880,2000
2597,200,120,1040,2000
2598,290,130,1470,2000
2599,470,60,1830,2000
2600,620,0,1910,2000
2601,970,-110,1700,2000
2602,1010,-190,1400,2000
2603,1040,-230,1080,2000
2604,940,-230,780,2000
2605,780,-220,450,2000
2606,600,-210,230,2000
2607,450,-140,120,2000
2608,190,-80,80,2000
2609,-40,-20,100,2000
2610,-260,50,240,2000
2611,-370,70,370,2000
2612,-380,90,630,2000
2613,-340,170,660,2000
2614,-170,180,980,2000
2615,-250,230,960,2000
2616,100,80,1210,2000
2617,-120,220,1220,2000
2618,130,60,1320,2000
2619,170,70,1330,2000
2620,250,-30,1380,2000
2621,350,-30,1350,2000
2622,460,-120,1300,2000
2623,390,-130,1200,2000
2624,440,-140,1090,2000
2625,480,-160,990,2000
2626,400,-150,890,2000
2627,460,-130,880,2000
2628,420,-80,860,2000
2629,360,-40,910,2000
2630,350,0,940,2000
2631,320,0,960,2000
2632,290,-10,960,2000
2633,340,-10,960,2000
2634,350,0,970,2000
2635,360,0,960,2000
2636,360,10,960,2000
2637,360,20,960,2000
2638,360,20,950,2000
2639,390,10,930,2000
2640,370,10,940,2000
2641,370,20,940,2000
2642,350,20,960,2000
2643,420,-10,930,2000
2644,320,30,910,2000
2645,270,20,890,2000
2646,380,40,970,2000
2647,430,0,990,2000
2648,370,10,990,2000
2649,380,10,990,2000
2650,280,10,970,2000
2651,430,-20,930,2000
2652,310,10,870,2000
2653,360,10,870,2000
2654,310,40,950,2000
2655,370,30,980,2000
2656,310,20,980,2000
2657,390,-10,970,2000
2658,400,30,940,2000
2659,370,20,940,2000
2660,370,10,920,2000
2661,420,20,890,2000
2662,420,30,920,2000
2663,410,20,940,2000
2664,420,20,930,2000
2665,430,10,930,2000
2666,450,10,930,2000
2667,410,20,910,2000
2668,420,20,910,2000
2669,430,30,910,2000
2670,430,20,920,2000
2671,420,20,910,2000
2672,440,10,910,2000
2673,440,10,920,2000
2674,430,20,930,2000
2675,440,20,920,0
2676,430,30,930,0
2677,440,10,920,0
2678,420,10,910,0
2679,440,10,910,0
2680,440,20,910,0
2681,440,20,920,0
2682,430,10,920,0
2683,430,20,920,0
2684,440,10,920,0
2685,430,10,920,0
2686,430,10,920,0
2687,440,10,920,0
2688,430,20,920,0
2689,440,10,920,0
2690,430,10,910,0
2691,440,20,910,0
2692,430,10,910,0
2693,430,10,920,0
2694,440,10,910,0
2695,430,10,910,0
2696,430,20,910,0
2697,440,20,920,0
2698,440,10,920,0
2699,450,10,920,0
2700,440,10,920,0
2701,440,10,910,0
2702,450,10,910,0
2703,450,10,910,0
2704,450,10,920,0
2705,440,10,910,0
2706,450,10,910,0
2707,460,10,910,0
2708,450,10,910,0
2709,440,20,900,0
2710,450,10,900,0
2711,450,10,920,0
2712,450,0,910,0
2713,450,0,910,0
2714,450,10,910,0
2715,450,10,910,0
2716,450,10,900,0
2717,450,10,910,0
2718,450,10,910,0
2719,450,10,910,0
2720,450,10,910,0
2721,450,10,920,0
2722,450,10,910,0
2723,450,10,910,0
2724,450,10,900,0
2725,450,10,910,0
2726,450,10,910,0
2727,450,10,900,0
2728,450,10,910,0
2729,450,10,910,0
2730,450,10,910,0
2731,450,10,910,0
2732,450,10,910,0
2733,450,10,910,0
2734,450,10,900,0
2735,450,10,910,0
2736,450,10,920,0
2737,450,10,910,0
2738,450,10,910,0
2739,450,10,910,0
2740,460,10,910,0
2741,450,10,910,0
2742,450,10,910,0
2743,450,10,910,0
2744,450,10,900,0
2745,460,10,910,0
2746,450,10,910,0
2747,450,10,920,0
2748,450,10,910,0
2749,450,10,910,0
2750,450,10,910,0
2751,450,10,910,0
2752,450,10,910,0
2753,450,10,910,0
2754,450,10,910,0
2755,450,10,910,0
2756,450,10,910,0
2757,450,10,900,0
2758,450,10,910,0
2759,450,10,910,0
2760,460,10,900,0
2761,450,10,900,0
2762,450,10,910,0
2763,450,10,910,0
2764,450,10,920,0
2765,450,0,910,0
2766,460,10,910,0
2767,450,10,910,0
2768,460,10,900,0
2769,450,10,900,0
2770,450,10,910,0
2771,460,10,910,0
2772,460,10,910,0
2773,460,10,910,0
2774,450,10,910,0
2775,460,10,910,0
2776,450,10,900,0
2777,460,10,900,0
2778,460,10,900,0
2779,460,10,910,0
2780,450,10,900,0
2781,460,10,920,0
2782,450,10,920,0
2783,450,10,900,0
2784,450,10,900,0
2785,460,20,910,0
2786,450,10,910,0
2787,450,10,900,0
2788,450,10,910,0
2789,460,10,910,0
2790,450,10,900,0
2791,440,10,900,0
2792,460,0,910,0
2793,450,0,930,0
2794,410,0,930,0
2795,500,10,910,0
2796,380,30,930,0
2797,430,0,930,0
2798,420,20,910,0
2799,420,10,920,0
2800,400,0,910,0
2801,390,10,920,0
2802,420,10,940,0
2803,420,0,960,0
2804,420,10,940,0
2805,400,10,900,0
2806,410,0,920,0
2807,410,10,900,0
2808,450,0,900,0
2809,430,10,920,0
2810,490,-10,910,0
2811,450,10,910,0
2812,460,0,910,0
2813,450,0,910,0
2814,460,0,910,0
2815,460,10,900,0
2816,460,0,890,0
2817,450,0,900,0
2818,460,0,900,0
2819,460,0,900,0
2820,460,0,900,0
2821,460,0,910,0
2822,460,0,900,0
2823,460,0,900,0
2824,460,0,900,0
2825,460,0,900,2000
2826,460,0,900,2000
2827,460,0,910,2000
2828,460,0,910,2000
2829,460,0,910,2000
2830,460,0,900,2000
2831,460,0,900,2000
2832,450,0,910,2000
2833,460,0,900,2000
2834,460,0,900,2000
2835,460,0,900,2000
2836,460,0,900,2000
2837,460,0,900,2000
2838,450,0,900,2000
2839,460,0,890,2000
2840,460,0,880,2000
2841,460,10,870,2000
2842,450,10,870,2000
2843,420,100,860,2000
2844,300,110,880,2000
2845,190,150,960,2000
2846,140,220,1190,2000
2847,400,190,1500,2000
2848,500,120,1720,2000
2849,710,100,1820,2000
2850,960,-100,1660,2000
2851,960,-240,1360,2000
2852,970,-250,1030,2000
2853,930,-260,770,2000
2854,800,-300,490,2000
2855,580,-390,290,2000
2856,460,-240,230,2000
2857,250,-70,170,2000
2858,-50,30,130,2000
2859,-250,70,220,2000
2860,-380,110,380,2000
2861,-480,110,590,2000
2862,-480,180,720,2000
2863,-350,200,920,2000
2864,-270,180,960,2000
2865,-260,80,1110,2000
2866,-140,30,1170,2000
2867,0,10,1230,2000
2868,60,-20,1290,2000
2869,180,-30,1310,2000
2870,330,-110,1260,2000
2871,360,-130,1180,2000
2872,360,-200,1110,2000
2873,350,-140,1080,2000
2874,530,-140,1060,2000
2875,450,-130,980,2000
2876,450,-100,970,2000
2877,500,-80,940,2000
2878,460,-70,910,2000
2879,460,-40,920,2000
2880,460,-50,940,2000
2881,430,-20,950,2000
2882,460,-20,950,2000
2883,440,-10,920,2000
2884,420,10,910,2000
2885,450,10,930,2000
2886,460,10,940,2000
2887,460,0,900,2000
2888,450,20,900,2000
2889,470,10,910,2000
2890,440,30,930,2000
2891,470,10,920,2000
2892,380,40,900,2000
2893,430,10,880,2000
2894,340,50,930,2000
2895,430,20,950,2000
2896,390,30,950,2000
2897,410,30,970,2000
2898,450,20,980,2000
2899,450,-20,920,2000
2900,370,50,860,2000
2901,420,40,860,2000
2902,380,20,920,2000
2903,420,50,940,2000
2904,410,30,950,2000
2905,420,20,980,2000
2906,440,0,970,2000
2907,450,40,920,2000
2908,420,40,910,2000
2909,390,20,880,2000
2910,460,30,880,2000
2911,460,20,890,2000
2912,450,20,890,2000
2913,460,20,890,2000
2914,460,20,890,2000
2915,460,20,900,2000
2916,460,30,910,2000
2917,460,20,900,2000
2918,460,20,910,2000
2919,460,20,900,2000
2920,460,20,900,2000
2921,460,20,900,2000
2922,460,20,890,2000
2923,460,20,890,2000
2924,460,20,900,2000
2925,460,20,900,0
2926,460,20,900,0
2927,460,10,900,0
2928,460,20,900,0
2929,460,10,900,0
2930,460,10,900,0
2931,460,10,910,0
2932,460,10,900,0
2933,460,20,900,0
2934,460,10,900,0
2935,460,20,900,0
2936,460,20,910,0
2937,460,20,900,0
2938,460,10,900,0
2939,460,10,900,0
2940,460,10,890,0
2941,460,10,890,0
2942,460,10,900,0
2943,460,10,900,0
2944,460,10,910,0
2945,460,10,910,0
2946,460,10,900,0
2947,460,10,900,0
2948,460,10,880,0
2949,460,0,870,0
2950,460,0,880,0
2951,460,-10,880,0
2952,450,-10,880,0
2953,460,-20,910,0
2954,460,-10,920,0
2955,470,-10,920,0
2956,470,-10,910,0
2957,450,0,880,0
2958,440,0,860,0
2959,440,0,870,0
2960,450,-20,890,0
2961,470,-30,880,0
2962,490,-40,880,0
2963,470,-50,870,0
2964,500,-40,820,0
2965,520,-50,810,0
2966,510,-50,830,0
2967,510,-40,860,0
2968,560,-20,870,0
2969,530,-10,850,0
2970,580,-10,850,0
2971,590,0,860,0
2972,570,30,860,0
2973,520,40,870,0
2974,510,50,860,0
2975,490,50,850,0
2976,530,40,860,0
2977,540,40,820,0
2978,580,30,840,0
2979,580,40,790,0
2980,580,60,810,0
2981,580,70,790,0
2982,580,100,800,0
2983,520,130,860,0
2984,510,130,910,0
2985,500,130,820,0
2986,660,140,750,0
2987,880,110,690,0
2988,900,110,570,0
2989,920,100,460,0
2990,860,90,460,0
2991,800,90,540,0
2992,730,100,630,0
2993,640,110,730,0
2994,580,140,770,0
2995,550,160,840,0
2996,580,190,860,0
2997,580,200,840,0
2998,560,190,840,0
2999,550,190,850,0
3000,510,190,860,0
3001,470,190,840,0
3002,480,200,840,0
3003,540,200,910,0
3004,460,190,800,0
3005,400,230,740,0
3006,480,230,850,0
3007,540,200,840,0
3008,540,190,830,0
3009,580,190,850,0
3010,570,200,790,0
3011,580,230,770,0
3012,580,230,760,0
3013,620,240,750,0
3014,620,250,740,0
3015,650,260,740,0
3016,650,240,730,0
3017,660,240,740,0
3018,670,240,740,0
3019,650,240,710,0
3020,660,250,700,0
3021,690,260,700,0
3022,680,300,670,0
3023,670,300,650,0
3024,660,280,660,0
3025,670,260,680,0
3026,670,290,620,0
3027,660,260,680,0
3028,770,360,700,0
3029,690,370,640,0
3030,680,370,630,0
3031,680,320,630,0
3032,720,300,620,0
3033,730,350,590,0
3034,710,360,570,0
3035,720,380,590,0
3036,670,420,600,0
3037,730,310,620,0
3038,730,310,600,0
3039,730,330,600,0
3040,730,320,600,0
3041,730,320,590,0
3042,730,310,590,0
3043,730,300,600,0
3044,730,300,590,0
3045,730,300,600,0
3046,730,300,590,0
3047,730,300,590,0
3048,740,290,590,0
3049,730,290,590,0
