sequence,accelx,accely,accelz,event
0,560,-200,820,0
1,560,-200,810,0
2,560,-200,820,0
3,560,-210,810,0
4,550,-200,810,0
5,550,-200,810,0
6,550,-200,820,0
7,560,-200,820,0
8,560,-210,820,0
9,550,-200,810,0
10,550,-200,810,0
11,550,-200,810,0
12,560,-210,820,0
13,550,-200,810,0
14,560,-200,810,0
15,560,-200,810,0
16,560,-200,820,0
17,540,-200,820,0
18,550,-200,830,0
19,540,-210,800,0
20,580,-210,790,0
21,560,-200,820,0
22,600,-230,900,0
23,560,-270,880,0
24,520,-240,920,0
25,460,-210,910,0
26,420,-150,910,0
27,410,-130,920,0
28,360,-140,860,0
29,410,-190,880,0
30,460,-170,900,0
31,420,-150,880,0
32,400,-140,870,0
33,460,-130,910,0
34,410,-100,890,0
35,410,-70,920,0
36,360,-70,910,0
37,360,-90,920,0
38,360,-110,940,0
39,320,-90,940,0
40,350,-100,960,0
41,350,-100,960,0
42,350,-80,950,0
43,350,-70,950,0
44,340,-60,950,0
45,350,-60,950,0
46,350,-60,940,0
47,350,-60,940,0
48,350,-50,960,0
49,350,-50,950,0
50,320,-60,950,0
51,340,-60,960,0
52,340,-60,970,0
53,330,-60,960,0
54,310,-60,970,0
55,280,-60,950,0
56,300,-60,960,0
57,300,-60,970,0
58,250,-40,960,0
59,230,-60,960,0
60,300,-80,960,0
61,190,-40,980,0
62,270,-80,1000,0
63,280,-70,970,0
64,280,-60,950,0
65,290,-50,970,0
66,320,-50,980,0
67,350,-90,950,0
68,290,-40,930,0
69,350,-70,940,0
70,280,-60,940,0
71,370,-60,950,0
72,440,-110,950,0
73,350,-50,950,0
74,370,-60,970,0
75,360,-70,950,2000
76,360,-70,940,2000
77,360,-70,930,2000
78,360,-60,930,2000
79,370,-60,940,2000
80,360,-70,930,2000
81,370,-70,940,2000
82,360,-70,940,2000
83,360,-70,940,2000
84,360,-70,940,2000
85,370,-70,950,2000
86,360,-70,940,2000
87,360,-70,950,2000
88,360,-70,940,2000
89,360,-70,950,2000
90,360,-70,940,2000
91,360,-70,940,2000
92,360,-70,940,2000
93,360,-70,940,2000
94,360,-70,940,2000
95,360,-60,950,2000
96,360,-60,950,2000
97,360,-70,940,2000
98,360,-70,940,2000
99,360,-70,940,2000
100,360,-70,940,2000
101,360,-60,940,2000
102,360,-60,940,2000
103,360,-50,940,2000
104,350,-40,940,2000
105,340,-40,940,2000
106,350,-40,960,2000
107,350,-40,980,2000
108,310,-20,1020,2000
109,240,-10,1140,2000
110,130,-10,1390,2000
111,110,-20,1550,2000
112,110,20,1770,2000
113,160,-10,1750,2000
114,290,-90,1720,2000
115,540,-210,1630,2000
116,320,-250,1380,2000
117,310,-270,1060,2000
118,280,-150,680,2000
119,180,-130,460,2000
120,100,-100,320,2000
121,-90,-140,220,2000
122,-100,-300,230,2000
123,-200,-510,260,2000
124,-250,-600,350,2000
125,-270,-630,430,2000
126,-280,-690,470,2000
127,-440,-690,540,2000
128,-370,-690,580,2000
129,-410,-660,590,2000
130,-410,-690,550,2000
131,-340,-640,550,2000
132,-410,-630,490,2000
133,-310,-560,450,2000
134,-340,-490,360,2000
135,-290,-360,230,2000
136,-120,-290,200,2000
137,-10,-220,160,2000
138,190,-220,250,2000
139,300,-140,440,2000
140,400,-50,920,2000
141,200,40,1330,2000
142,470,-10,1630,2000
143,220,-40,1800,2000
144,450,-70,1820,2000
145,200,-10,1780,2000
146,260,20,1510,2000
147,370,-10,1280,2000
148,380,0,1060,2000
149,580,0,910,2000
150,400,20,890,2000
151,450,20,900,2000
152,420,40,880,2000
153,480,10,890,2000
154,480,10,900,2000
155,470,0,900,2000
156,470,0,900,2000
157,460,0,910,2000
158,480,0,880,2000
159,510,10,870,2000
160,520,10,880,2000
161,470,20,870,2000
162,470,10,870,2000
163,470,10,870,2000
164,510,10,860,2000
165,500,20,860,2000
166,490,10,860,2000
167,510,10,860,2000
168,490,10,870,2000
169,510,10,870,2000
170,510,0,860,2000
171,510,10,830,2000
172,530,20,860,2000
173,500,20,850,2000
174,510,10,870,2000
175,490,30,830,2000
176,550,0,860,2000
177,470,20,860,2000
178,570,10,920,2000
179,490,30,880,2000
180,520,0,890,2000
181,490,-10,780,2000
182,480,50,840,2000
183,520,-10,860,2000
184,500,10,880,2000
185,530,20,920,2000
186,470,40,910,2000
187,500,-10,860,2000
188,540,20,820,2000
189,540,-40,790,2000
190,530,50,800,2000
191,530,30,850,2000
192,560,10,860,2000
193,570,0,850,2000
194,540,10,840,2000
195,550,10,850,2000
196,550,10,840,2000
197,550,10,840,2000
198,580,10,830,2000
199,550,20,840,2000
200,570,20,850,0
201,560,10,840,0
202,540,10,830,0
203,570,0,840,0
204,550,10,830,0
205,560,10,840,0
206,550,10,840,0
207,560,10,830,0
208,560,10,840,0
209,550,0,840,0
210,560,10,840,0
211,560,10,840,0
212,570,10,840,0
213,550,10,840,0
214,560,10,840,0
215,570,10,840,0
216,550,0,840,0
217,560,0,830,0
218,550,10,840,0
219,560,0,830,0
220,560,10,830,0
221,570,10,840,0
222,550,10,830,0
223,550,0,830,0
224,570,0,840,0
225,540,10,840,0
226,560,0,840,0
227,560,0,840,0
228,550,10,840,0
229,570,0,830,0
230,560,0,830,0
231,560,0,830,0
232,560,0,840,0
233,560,10,830,0
234,560,0,840,0
235,570,0,840,0
236,560,10,830,0
237,550,0,820,0
238,570,0,830,0
239,570,0,840,0
240,560,10,830,0
241,560,10,840,0
242,560,10,850,0
243,570,0,830,0
244,560,0,840,0
245,570,10,840,0
246,550,10,830,0
247,570,10,840,0
248,570,0,820,0
249,570,10,830,0
250,570,0,830,0
251,570,0,840,0
252,550,0,840,0
253,580,0,830,0
254,570,0,830,0
255,560,0,830,0
256,570,0,840,0
257,550,0,830,0
258,570,0,840,0
259,560,0,830,0
260,560,0,830,0
261,570,0,840,0
262,550,0,830,0
263,570,0,840,0
264,550,0,830,0
265,560,0,840,0
266,560,0,840,0
267,550,0,830,0
268,570,0,840,0
269,550,0,830,0
270,560,0,840,0
271,570,0,840,0
272,560,0,830,0
273,560,0,840,0
274,560,0,840,0
275,570,10,840,0
276,570,0,830,0
277,550,0,840,0
278,570,0,850,0
279,560,0,830,0
280,550,10,840,0
281,570,0,840,0
282,560,0,830,0
283,570,0,840,0
284,550,0,840,0
285,560,0,840,0
286,560,0,840,0
287,560,10,840,0
288,560,10,830,0
289,560,0,830,0
290,550,0,830,0
291,560,0,840,0
292,560,0,840,0
293,550,0,840,0
294,560,0,840,0
295,550,10,840,0
296,550,0,830,0
297,560,0,840,0
298,550,0,840,0
299,560,0,840,0
300,550,10,840,0
301,560,0,840,0
302,560,0,850,0
303,550,0,840,0
304,550,0,840,0
305,570,0,840,0
306,550,0,830,0
307,560,0,840,0
308,560,0,840,0
309,560,0,840,0
310,560,10,840,0
311,560,0,840,0
312,560,0,850,0
313,560,0,840,0
314,550,0,830,0
315,550,0,840,0
316,550,0,840,0
317,550,0,840,0
318,550,0,840,0
319,540,0,830,0
320,560,0,840,0
321,560,0,840,0
322,550,10,850,0
323,560,0,850,0
324,560,0,840,0
325,540,0,840,0
326,550,0,840,0
327,550,0,840,0
328,550,0,840,0
329,550,-10,840,0
330,560,-10,840,0
331,540,0,840,0
332,560,0,840,0
333,560,0,850,0
334,540,0,840,0
335,550,0,840,0
336,550,0,840,0
337,550,0,840,0
338,550,0,850,0
339,540,0,840,0
340,550,0,840,0
341,560,0,840,0
342,550,0,840,0
343,560,0,850,0
344,550,0,840,0
345,550,0,840,0
346,560,0,840,0
347,550,0,840,0
348,560,0,850,0
349,550,0,840,0
350,560,0,840,0
351,540,0,840,0
352,550,0,840,0
353,550,0,840,0
354,550,0,840,0
355,550,0,840,0
356,560,0,840,0
357,550,0,840,0
358,550,0,840,0
359,560,10,840,0
360,540,10,840,0
361,560,0,840,0
362,530,0,840,0
363,520,0,850,0
364,560,0,860,0
365,520,0,860,0
366,530,0,850,0
367,540,-10,850,0
368,520,0,860,0
369,530,0,860,0
370,470,0,860,0
371,490,10,870,0
372,480,0,850,0
373,530,0,870,0
374,470,0,850,0
375,480,0,880,0
376,470,-10,900,0
377,500,0,890,0
378,480,0,880,0
379,490,-40,890,0
380,480,20,890,0
381,530,0,870,0
382,490,0,840,0
383,530,10,850,0
384,530,10,840,0
385,520,10,840,0
386,550,0,850,0
387,530,0,860,0
388,530,0,860,0
389,520,0,840,0
390,540,10,850,0
391,530,0,850,0
392,540,0,840,0
393,540,0,830,0
394,550,0,850,0
395,540,10,850,0
396,550,0,850,0
397,550,10,850,0
398,540,0,850,0
399,540,10,850,0
400,540,10,850,2000
401,540,0,840,2000
402,540,0,840,2000
403,540,0,850,2000
404,550,0,850,2000
405,540,0,840,2000
406,530,10,850,2000
407,550,0,860,2000
408,540,0,850,2000
409,540,0,850,2000
410,540,10,850,2000
411,540,10,850,2000
412,540,0,850,2000
413,540,0,850,2000
414,540,0,850,2000
415,550,0,850,2000
416,540,0,850,2000
417,530,10,850,2000
418,540,10,840,2000
419,530,100,860,2000
420,500,240,890,2000
421,370,490,940,2000
422,430,600,900,2000
423,610,550,880,2000
424,710,460,830,2000
425,760,270,780,2000
426,850,70,750,2000
427,830,-130,660,2000
428,830,-330,600,2000
429,770,-350,670,2000
430,490,-200,800,2000
431,330,-20,1010,2000
432,430,210,1470,2000
433,430,420,1970,2000
434,770,480,2290,2000
435,790,450,2260,2000
436,750,290,1970,2000
437,610,50,1480,2000
438,760,20,960,2000
439,360,110,420,2000
440,170,150,150,2000
441,100,160,50,2000
442,-70,-90,-40,2000
443,-250,-250,-90,2000
444,-310,-580,-60,2000
445,-400,-720,-50,2000
446,-330,-750,50,2000
447,-260,-730,180,2000
448,-320,-760,210,2000
449,-210,-580,160,2000
450,-130,-350,50,2000
451,-170,-180,-90,2000
452,-20,-50,-100,2000
453,-10,100,-20,2000
454,190,250,370,2000
455,420,550,1120,2000
456,100,370,1570,2000
457,1120,440,2170,2000
458,530,180,1900,2000
459,840,230,1780,2000
460,650,-70,1470,2000
461,580,-80,1130,2000
462,950,-290,940,2000
463,970,-390,760,2000
464,850,-240,650,2000
465,960,100,760,2000
466,770,470,920,2000
467,650,750,950,2000
468,650,790,940,2000
469,450,660,770,2000
470,610,440,760,2000
471,470,210,700,2000
472,570,40,720,2000
473,700,0,760,2000
474,710,-40,750,2000
475,770,-50,790,2000
476,680,-40,750,2000
477,670,-20,730,2000
478,680,-10,750,2000
479,720,-40,740,2000
480,680,-20,740,2000
481,700,-10,730,2000
482,660,0,740,2000
483,710,0,740,2000
484,650,20,750,2000
485,690,0,730,2000
486,690,10,740,2000
487,660,10,740,2000
488,660,10,740,2000
489,660,0,760,2000
490,630,0,710,2000
491,640,20,730,2000
492,700,-10,750,2000
493,690,0,770,2000
494,680,10,830,2000
495,670,20,860,2000
496,640,-30,830,2000
497,710,20,720,2000
498,650,-10,720,2000
499,630,0,730,2000
500,660,10,750,2000
501,630,40,790,2000
502,670,0,770,2000
503,690,-10,740,2000
504,710,20,730,2000
505,670,10,740,2000
506,760,10,730,2000
507,700,0,740,2000
508,680,-10,730,2000
509,700,0,740,2000
510,690,0,740,2000
511,700,-10,730,2000
512,680,0,730,2000
513,690,-10,730,2000
514,700,-10,730,2000
515,680,-10,740,2000
516,690,-10,740,2000
517,700,-10,730,2000
518,690,0,730,2000
519,700,-10,730,2000
520,700,-10,730,2000
521,690,0,740,2000
522,690,-20,730,2000
523,700,-20,730,2000
524,690,-10,730,2000
525,690,-10,730,0
526,710,-20,720,0
527,700,-20,730,0
528,710,-30,730,0
529,720,-20,730,0
530,690,-10,710,0
531,700,-10,720,0
532,690,0,740,0
533,700,-10,730,0
534,710,-30,730,0
535,720,-30,730,0
536,700,-20,730,0
537,710,-20,730,0
538,720,-20,720,0
539,710,-20,720,0
540,700,-20,730,0
541,710,-30,720,0
542,720,-20,720,0
543,700,-20,730,0
544,720,-20,730,0
545,720,-20,720,0
546,710,-20,710,0
547,720,-20,720,0
548,710,-20,730,0
549,720,-30,730,0
550,720,-40,730,0
551,720,-40,720,0
552,720,-40,710,0
553,720,-40,710,0
554,710,-40,720,0
555,700,-30,710,0
556,710,-20,730,0
557,710,-20,730,0
558,700,-10,730,0
559,720,-20,730,0
560,710,-20,720,0
561,710,-20,720,0
562,700,-20,720,0
563,700,-20,720,0
564,720,-30,710,0
565,720,-30,720,0
566,700,-20,730,0
567,720,-20,730,0
568,720,-30,730,0
569,720,-30,730,0
570,710,-20,720,0
571,720,-20,710,0
572,720,-20,720,0
573,710,-10,720,0
574,710,-20,720,0
575,720,-20,720,0
576,710,-20,720,0
577,720,-20,720,0
578,710,-20,720,0
579,710,-30,720,0
580,720,-30,720,0
581,700,-30,720,0
582,710,-20,720,0
583,720,-30,720,0
584,700,-20,730,0
585,700,-20,730,0
586,710,-30,720,0
587,710,-20,720,0
588,720,-20,730,0
589,700,-30,720,0
590,720,-30,720,0
591,700,-20,730,0
592,710,-30,730,0
593,710,-30,730,0
594,710,-30,720,0
595,700,-20,720,0
596,710,-30,720,0
597,720,-20,720,0
598,710,-30,720,0
599,710,-30,730,0
600,710,-20,730,0
601,710,-20,730,0
602,710,-30,720,0
603,710,-20,720,0
604,700,-20,720,0
605,720,-30,720,0
606,700,-20,720,0
607,710,-20,730,0
608,710,-30,720,0
609,710,-20,730,0
610,710,-30,730,0
611,710,-20,730,0
612,710,-20,720,0
613,710,-20,720,0
614,700,-20,720,0
615,710,-20,720,0
616,710,-20,730,0
617,700,-30,730,0
618,710,-30,730,0
619,710,-30,730,0
620,700,-30,730,0
621,710,-30,720,0
622,700,-20,720,0
623,700,-20,720,0
624,710,-20,720,0
625,710,-20,730,0
626,700,-30,730,0
627,700,-30,730,0
628,710,-20,730,0
629,710,-20,730,0
630,700,-20,730,0
631,700,-30,720,0
632,710,-20,730,0
633,700,-20,730,0
634,690,-30,730,0
635,680,-30,730,0
636,700,-20,730,0
637,670,-20,740,0
638,730,-20,740,0
639,690,-30,730,0
640,700,-20,730,0
641,700,-20,740,0
642,670,-20,740,0
643,700,-20,760,0
644,630,-40,740,0
645,670,-20,740,0
646,640,-30,720,0
647,680,-10,750,0
648,600,-20,750,0
649,640,-20,800,0
650,630,-30,820,0
651,610,-30,780,0
652,610,0,790,0
653,620,-20,800,0
654,630,-10,750,0
655,630,-10,750,0
656,630,-30,740,0
657,660,-20,750,0
658,660,-10,750,0
659,690,-30,750,0
660,660,-10,750,0
661,680,-20,760,0
662,670,-20,750,0
663,670,-20,750,0
664,670,-20,750,0
665,670,-20,730,0
666,680,-20,730,0
667,670,-20,740,0
668,680,-20,740,0
669,670,-20,740,0
670,680,-30,740,0
671,680,-20,740,0
672,680,-20,740,0
673,680,-20,740,0
674,670,-20,740,0
675,680,-30,740,2000
676,680,-30,740,2000
677,670,-30,740,2000
678,680,-40,740,2000
679,680,-30,740,2000
680,680,-40,740,2000
681,670,-30,730,2000
682,680,-20,730,2000
683,680,-30,750,2000
684,670,-20,750,2000
685,690,-40,750,2000
686,680,-40,750,2000
687,680,-30,740,2000
688,680,-40,740,2000
689,660,-30,740,2000
690,680,-40,740,2000
691,680,-40,730,2000
692,670,-30,740,2000
693,680,-20,730,2000
694,680,-20,730,2000
695,670,20,720,2000
696,680,130,700,2000
697,610,350,790,2000
698,480,450,780,2000
699,580,530,840,2000
700,760,480,940,2000
701,760,440,980,2000
702,850,370,1120,2000
703,840,310,1210,2000
704,680,200,1240,2000
705,880,60,1230,2000
706,820,-200,1180,2000
707,890,-300,1160,2000
708,920,-330,1030,2000
709,800,-360,870,2000
710,720,-450,660,2000
711,560,-470,450,2000
712,450,-430,310,2000
713,380,-380,370,2000
714,210,-270,520,2000
715,90,-190,770,2000
716,-20,-60,1070,2000
717,-360,140,1360,2000
718,-480,200,1490,2000
719,-560,300,1510,2000
720,-790,330,1430,2000
721,-830,320,1300,2000
722,-820,250,1120,2000
723,-790,210,990,2000
724,-630,180,860,2000
725,-520,110,700,2000
726,-410,60,510,2000
727,-280,-80,420,2000
728,-30,-160,290,2000
729,330,-410,240,2000
730,460,-760,120,2000
731,720,-990,110,2000
732,690,-1330,60,2000
733,690,-1470,120,2000
734,770,-1510,170,2000
735,810,-1520,160,2000
736,790,-1400,50,2000
737,720,-1190,-50,2000
738,570,-910,-20,2000
739,410,-610,80,2000
740,210,-360,160,2000
741,50,-150,310,2000
742,-170,50,530,2000
743,-280,80,640,2000
744,-330,310,1000,2000
745,-750,390,1120,2000
746,-650,530,1420,2000
747,-970,560,1320,2000
748,-700,500,1350,2000
749,-630,440,1210,2000
750,-220,360,1040,2000
751,90,220,920,2000
752,450,-50,840,2000
753,460,-220,720,2000
754,730,-490,730,2000
755,750,-580,650,2000
756,970,-770,740,2000
757,960,-760,760,2000
758,830,-620,980,2000
759,690,-560,920,2000
760,840,-380,980,2000
761,750,-220,980,2000
762,980,0,980,2000
763,860,230,970,2000
764,710,340,940,2000
765,900,310,870,2000
766,710,390,750,2000
767,710,310,740,2000
768,710,250,670,2000
769,720,100,660,2000
770,760,0,600,2000
771,770,-30,600,2000
772,770,-10,620,2000
773,750,0,650,2000
774,830,-10,690,2000
775,760,10,660,2000
776,810,-20,630,2000
777,770,-10,610,2000
778,770,-20,600,2000
779,780,-30,610,2000
780,770,-10,620,2000
781,800,-20,620,2000
782,800,0,630,2000
783,770,-20,600,2000
784,750,10,650,2000
785,700,-30,680,2000
786,780,0,690,2000
787,730,-10,670,2000
788,760,-30,660,2000
789,730,0,700,2000
790,730,0,730,2000
791,720,0,750,2000
792,700,-40,660,2000
793,720,-20,650,2000
794,740,-10,630,2000
795,670,10,730,2000
796,680,30,780,2000
797,660,10,800,2000
798,750,-30,690,2000
799,740,-10,620,2000
800,700,-20,660,0
801,760,0,660,0
802,740,-30,670,0
803,740,-30,670,0
804,730,-20,680,0
805,730,-20,690,0
806,740,-30,680,0
807,740,-10,660,0
808,740,-10,660,0
809,730,-20,670,0
810,730,-10,670,0
811,730,-20,660,0
812,750,-30,680,0
813,740,-20,680,0
814,740,-20,660,0
815,740,-20,670,0
816,730,-10,670,0
817,750,-30,670,0
818,730,-20,670,0
819,740,-20,670,0
820,750,-30,680,0
821,730,-20,670,0
822,740,-20,670,0
823,730,-20,680,0
824,740,-30,670,0
825,740,-20,670,0
826,730,-20,670,0
827,740,-30,670,0
828,730,-20,670,0
829,740,-30,680,0
830,730,-20,670,0
831,740,-40,680,0
832,740,-40,690,0
833,730,-30,690,0
834,740,-20,680,0
835,730,-20,670,0
836,730,-30,670,0
837,740,-30,660,0
838,740,-40,670,0
839,740,-40,680,0
840,730,-30,680,0
841,740,-50,680,0
842,740,-40,670,0
843,730,-40,680,0
844,730,-40,680,0
845,730,-40,670,0
846,730,-40,670,0
847,730,-40,670,0
848,730,-40,670,0
849,730,-40,680,0
850,740,-60,680,0
851,730,-40,680,0
852,730,-40,680,0
853,740,-40,670,0
854,730,-40,680,0
855,740,-50,680,0
856,730,-50,680,0
857,740,-50,680,0
858,730,-40,680,0
859,730,-50,680,0
860,730,-50,670,0
861,740,-40,670,0
862,730,-50,670,0
863,740,-50,680,0
864,730,-50,680,0
865,730,-50,680,0
866,730,-50,680,0
867,730,-40,680,0
868,730,-50,670,0
869,730,-40,680,0
870,730,-40,680,0
871,730,-40,680,0
872,740,-40,680,0
873,740,-40,680,0
874,740,-50,680,0
875,730,-40,680,0
876,730,-40,680,0
877,740,-50,680,0
878,730,-50,680,0
879,730,-40,680,0
880,730,-40,680,0
881,740,-50,680,0
882,730,-40,670,0
883,730,-40,680,0
884,730,-40,680,0
885,730,-40,670,0
886,730,-50,680,0
887,730,-50,680,0
888,740,-50,680,0
889,730,-50,680,0
890,730,-50,680,0
891,730,-50,680,0
892,730,-40,680,0
893,730,-50,680,0
894,730,-50,680,0
895,730,-40,690,0
896,730,-50,690,0
897,730,-40,680,0
898,730,-50,680,0
899,730,-40,680,0
900,730,-40,680,0
901,740,-50,680,0
902,740,-40,690,0
903,730,-50,680,0
904,730,-50,680,0
905,730,-40,680,0
906,740,-50,680,0
907,730,-40,680,0
908,730,-40,680,0
909,730,-50,680,0
910,730,-40,680,0
911,730,-40,680,0
912,730,-40,680,0
913,730,-40,690,0
914,730,-50,680,0
915,730,-30,680,0
916,730,-40,700,0
917,730,-40,690,0
918,730,-50,690,0
919,730,-50,690,0
920,720,-50,710,0
921,730,-50,700,0
922,730,-40,700,0
923,700,-40,700,0
924,720,-50,710,0
925,690,-40,720,0
926,720,-50,730,0
927,710,-40,720,0
928,680,-20,700,0
929,730,-60,720,0
930,660,-30,740,0
931,710,-50,760,0
932,680,-50,740,0
933,700,-40,730,0
934,700,-30,740,0
935,720,-60,730,0
936,700,-50,720,0
937,710,-20,730,0
938,720,-50,710,0
939,720,-40,720,0
940,730,-30,720,0
941,720,-40,700,0
942,720,-40,700,0
943,720,-40,710,0
944,710,-50,700,0
945,720,-50,690,0
946,720,-40,710,0
947,730,-40,710,0
948,720,-50,710,0
949,730,-40,710,0
950,730,-50,720,2000
951,720,-50,710,2000
952,730,-40,720,2000
953,720,-50,710,2000
954,720,-40,710,2000
955,720,-40,710,2000
956,710,-40,710,2000
957,720,-50,710,2000
958,720,-50,720,2000
959,720,-50,720,2000
960,720,-50,720,2000
961,720,-40,720,2000
962,720,-50,710,2000
963,720,-40,710,2000
964,730,-50,710,2000
965,710,-40,710,2000
966,720,-40,710,2000
967,720,-40,730,2000
968,720,-70,750,2000
969,720,-40,900,2000
970,710,-100,1270,2000
971,710,-260,1630,2000
972,870,-350,2030,2000
973,1370,-450,2030,2000
974,1470,-460,1690,2000
975,1430,-460,1000,2000
976,1130,-400,470,2000
977,460,-220,-80,2000
978,120,10,-210,2000
979,-230,130,-290,2000
980,-270,250,-270,2000
981,-330,250,-340,2000
982,-280,190,-330,2000
983,-100,240,-240,2000
984,20,210,-50,2000
985,600,30,630,2000
986,380,220,620,2000
987,1190,110,1190,2000
988,1290,350,1360,2000
989,2000,190,1800,2000
990,1330,340,2010,2000
991,1020,380,2080,2000
992,740,380,1920,2000
993,860,390,1620,2000
994,1160,500,1680,2000
995,1150,700,1760,2000
996,1340,790,1560,2000
997,1130,750,1230,2000
998,950,780,870,2000
999,810,640,500,2000
1000,170,460,100,2000
1001,450,90,20,2000
1002,0,-280,-140,2000
1003,-150,-500,-210,2000
1004,-270,-550,-150,2000
1005,-400,-500,-110,2000
1006,-500,-500,-60,2000
1007,-490,-490,-60,2000
1008,-390,-350,-90,2000
1009,-270,-230,-110,2000
1010,-10,-220,40,2000
1011,30,-230,160,2000
1012,310,-150,480,2000
1013,550,-140,770,2000
1014,800,90,1020,2000
1015,1080,20,1320,2000
1016,1180,210,1460,2000
1017,1290,160,1700,2000
1018,1190,30,1480,2000
1019,1030,280,1410,2000
1020,820,210,1310,2000
1021,760,220,1070,2000
1022,680,280,830,2000
1023,730,230,710,2000
1024,850,130,600,2000
1025,680,210,500,2000
1026,730,140,540,2000
1027,730,100,540,2000
1028,730,100,610,2000
1029,810,30,610,2000
1030,810,10,640,2000
1031,780,10,590,2000
1032,820,30,600,2000
1033,800,40,600,2000
1034,830,40,610,2000
1035,820,30,590,2000
1036,770,40,580,2000
1037,790,30,580,2000
1038,800,60,600,2000
1039,780,20,600,2000
1040,820,40,590,2000
1041,750,50,590,2000
1042,800,50,600,2000
1043,790,40,600,2000
1044,790,40,600,2000
1045,800,30,610,2000
1046,810,30,590,2000
1047,790,40,600,2000
1048,820,30,590,2000
1049,800,40,600,2000
1050,790,40,590,2000
1051,790,50,590,2000
1052,800,50,590,2000
1053,790,50,600,2000
1054,790,40,590,2000
1055,790,40,590,2000
1056,780,40,600,2000
1057,790,30,600,2000
1058,780,40,600,2000
1059,810,40,600,2000
1060,780,40,600,2000
1061,790,50,600,2000
1062,780,40,600,2000
1063,780,40,600,2000
1064,790,40,600,2000
1065,780,40,600,2000
1066,780,40,600,2000
1067,800,40,600,2000
1068,780,40,600,2000
1069,790,40,600,2000
1070,790,40,600,2000
1071,780,40,600,2000
1072,790,40,600,2000
1073,780,40,600,2000
1074,780,40,600,2000
1075,780,40,600,2000
1076,780,30,600,2000
1077,770,30,600,2000
1078,800,40,600,2000
1079,730,70,610,2000
1080,820,20,610,2000
1081,750,40,640,2000
1082,780,40,620,2000
1083,780,20,650,2000
1084,810,30,680,2000
1085,780,40,640,2000
1086,760,50,580,2000
1087,730,80,590,2000
1088,750,40,590,2000
1089,740,50,630,2000
1090,770,40,690,2000
1091,750,40,700,2000
1092,770,10,670,2000
1093,800,80,610,2000
1094,770,60,600,2000
1095,770,50,590,2000
1096,780,40,590,2000
1097,790,70,580,2000
1098,810,50,590,2000
1099,790,50,590,2000
1100,810,40,600,0
1101,810,40,590,0
1102,800,50,600,0
1103,800,30,590,0
1104,810,30,590,0
1105,800,40,590,0
1106,810,30,590,0
1107,790,30,580,0
1108,810,30,570,0
1109,800,40,580,0
1110,810,30,580,0
1111,800,20,590,0
1112,810,30,590,0
1113,810,20,580,0
1114,820,20,580,0
1115,810,30,570,0
1116,820,20,570,0
1117,820,20,570,0
1118,830,20,580,0
1119,830,20,580,0
1120,820,30,580,0
1121,820,20,570,0
1122,820,20,560,0
1123,830,30,570,0
1124,830,30,570,0
1125,820,20,570,0
1126,820,20,570,0
1127,820,20,570,0
1128,830,20,570,0
1129,830,10,560,0
1130,830,20,570,0
1131,830,20,570,0
1132,820,30,560,0
1133,810,30,550,0
1134,810,40,560,0
1135,820,60,570,0
1136,810,30,560,0
1137,830,20,570,0
1138,790,10,570,0
1139,830,20,570,0
1140,850,30,580,0
1141,840,30,570,0
1142,830,40,560,0
1143,800,70,510,0
1144,820,30,560,0
1145,840,30,560,0
1146,840,40,550,0
1147,850,50,570,0
1148,840,40,560,0
1149,830,30,560,0
1150,840,20,550,0
1151,840,20,540,0
1152,850,30,530,0
1153,850,40,530,0
1154,850,40,530,0
1155,840,50,540,0
1156,830,40,540,0
1157,850,40,540,0
1158,850,40,550,0
1159,840,30,550,0
1160,850,30,550,0
1161,840,30,550,0
1162,840,30,560,0
1163,840,40,550,0
1164,830,40,530,0
1165,840,40,530,0
1166,850,50,540,0
1167,850,40,540,0
1168,840,50,550,0
1169,820,60,530,0
1170,780,60,490,0
1171,840,40,540,0
1172,870,40,580,0
1173,850,30,560,0
1174,840,40,560,0
1175,840,60,570,0
1176,840,50,570,0
1177,840,50,550,0
1178,840,50,540,0
1179,840,50,550,0
1180,830,40,550,0
1181,840,30,580,0
1182,830,40,570,0
1183,850,30,540,0
1184,850,10,530,0
1185,800,20,510,0
1186,790,60,520,0
1187,850,50,560,0
1188,850,30,560,0
1189,820,30,570,0
1190,830,30,570,0
1191,840,30,560,0
1192,850,30,560,0
1193,840,30,560,0
1194,830,40,560,0
1195,840,30,550,0
1196,830,40,540,0
1197,840,40,550,0
1198,840,30,550,0
1199,850,40,550,0
1200,840,40,560,0
1201,840,30,560,0
1202,830,30,560,0
1203,840,30,560,0
1204,840,40,560,0
1205,840,40,550,0
1206,830,40,550,0
1207,830,20,570,0
1208,800,40,580,0
1209,820,30,580,0
1210,840,30,590,0
1211,790,20,590,0
1212,830,40,600,0
1213,800,20,590,0
1214,780,20,570,0
1215,810,30,590,0
1216,790,0,580,0
1217,770,40,580,0
1218,830,10,600,0
1219,790,30,590,0
1220,810,20,610,0
1221,810,30,580,0
1222,780,30,600,0
1223,770,30,600,0
1224,780,40,630,0
1225,810,30,620,0
1226,810,0,640,0
1227,780,40,610,0
1228,830,50,550,0
1229,790,40,570,0
1230,810,20,590,0
1231,810,30,570,0
1232,820,40,590,0
1233,810,30,600,0
1234,820,40,600,0
1235,840,30,590,0
1236,810,30,580,0
1237,820,40,580,0
1238,830,30,570,0
1239,800,40,560,0
1240,810,30,570,0
1241,810,30,580,0
1242,830,30,570,0
1243,830,30,580,0
1244,820,30,580,0
1245,810,30,580,0
1246,820,30,580,0
1247,810,30,580,0
1248,800,30,580,0
1249,820,30,580,0
1250,820,30,580,2000
1251,800,40,580,2000
1252,810,30,580,2000
1253,800,30,580,2000
1254,820,30,580,2000
1255,810,30,580,2000
1256,820,40,580,2000
1257,810,30,580,2000
1258,820,30,580,2000
1259,820,30,590,2000
1260,810,40,580,2000
1261,820,40,570,2000
1262,820,30,580,2000
1263,820,40,570,2000
1264,830,30,580,2000
1265,810,30,580,2000
1266,810,30,570,2000
1267,820,40,570,2000
1268,820,40,570,2000
1269,810,30,570,2000
1270,820,40,560,2000
1271,830,40,570,2000
1272,780,30,580,2000
1273,750,30,560,2000
1274,790,30,590,2000
1275,850,30,740,2000
1276,890,80,1150,2000
1277,1040,220,1570,2000
1278,1100,380,1990,2000
1279,1160,510,1990,2000
1280,1370,490,1730,2000
1281,1360,460,1330,2000
1282,1200,430,980,2000
1283,900,370,720,2000
1284,610,380,300,2000
1285,360,190,120,2000
1286,-130,80,-240,2000
1287,50,-230,-400,2000
1288,-200,-530,-380,2000
1289,-420,-530,-280,2000
1290,-420,-390,-230,2000
1291,-240,-310,-160,2000
1292,-260,-250,-150,2000
1293,-200,10,-170,2000
1294,-30,140,-20,2000
1295,280,200,380,2000
1296,290,400,710,2000
1297,930,560,990,2000
1298,1290,660,1430,2000
1299,1260,690,1590,2000
1300,1540,830,2160,2000
1301,670,790,2510,2000
1302,610,860,2570,2000
1303,310,870,2270,2000
1304,480,880,2010,2000
1305,800,790,1970,2000
1306,980,780,1820,2000
1307,790,840,1500,2000
1308,650,1060,910,2000
1309,430,900,320,2000
1310,210,530,-310,2000
1311,-30,10,-410,2000
1312,-110,-280,-420,2000
1313,-410,-500,-350,2000
1314,-460,-490,-350,2000
1315,-280,-520,-300,2000
1316,-220,-440,-250,2000
1317,-190,-210,-340,2000
1318,-270,-140,-280,2000
1319,0,10,-190,2000
1320,280,170,200,2000
1321,370,270,720,2000
1322,630,430,1190,2000
1323,830,330,1890,2000
1324,800,450,1620,2000
1325,1180,410,1960,2000
1326,770,480,1740,2000
1327,890,410,1730,2000
1328,520,200,1300,2000
1329,680,210,970,2000
1330,800,20,760,2000
1331,900,-140,630,2000
1332,910,-10,660,2000
1333,740,110,690,2000
1334,540,350,750,2000
1335,690,380,770,2000
1336,830,350,750,2000
1337,740,250,710,2000
1338,770,220,660,2000
1339,650,220,660,2000
1340,740,150,610,2000
1341,730,180,620,2000
1342,730,120,570,2000
1343,820,100,610,2000
1344,800,20,600,2000
1345,780,30,610,2000
1346,810,10,600,2000
1347,780,40,590,2000
1348,790,50,600,2000
1349,810,60,620,2000
1350,790,50,610,2000
1351,840,10,560,2000
1352,780,30,550,2000
1353,830,40,580,2000
1354,790,40,590,2000
1355,790,30,590,2000
1356,830,40,580,2000
1357,810,40,580,2000
1358,790,40,580,2000
1359,810,50,600,2000
1360,820,60,590,2000
1361,780,50,600,2000
1362,790,50,580,2000
1363,790,60,580,2000
1364,800,80,590,2000
1365,820,30,610,2000
1366,760,40,580,2000
1367,770,100,630,2000
1368,780,70,660,2000
1369,760,60,650,2000
1370,810,40,580,2000
1371,790,100,580,2000
1372,750,40,570,2000
1373,760,80,600,2000
1374,800,70,650,2000
1375,780,60,670,2000
1376,770,30,630,2000
1377,850,70,580,2000
1378,770,70,570,2000
1379,820,80,590,2000
1380,830,100,550,2000
1381,800,20,570,2000
1382,820,60,580,2000
1383,810,50,590,2000
1384,820,60,590,2000
1385,820,50,590,2000
1386,820,40,570,2000
1387,820,50,580,2000
1388,820,40,580,2000
1389,830,40,550,2000
1390,810,50,560,2000
1391,820,40,560,2000
1392,840,40,550,2000
1393,820,60,560,2000
1394,830,40,560,2000
1395,830,40,540,2000
1396,820,50,550,2000
1397,840,40,550,2000
1398,840,50,560,2000
1399,830,40,560,2000
1400,840,40,560,0
1401,840,40,570,0
1402,840,40,560,0
1403,840,40,550,0
1404,840,40,560,0
1405,830,40,550,0
1406,830,40,540,0
1407,840,40,540,0
1408,850,40,540,0
1409,840,50,550,0
1410,840,40,550,0
1411,850,40,550,0
1412,840,40,540,0
1413,850,40,540,0
1414,840,40,530,0
1415,830,50,530,0
1416,850,40,540,0
1417,850,30,550,0
1418,840,40,550,0
1419,850,40,550,0
1420,840,30,540,0
1421,840,40,540,0
1422,840,40,530,0
1423,840,50,540,0
1424,850,50,540,0
1425,850,40,550,0
1426,830,50,550,0
1427,840,40,550,0
1428,840,50,540,0
1429,840,50,550,0
1430,840,40,550,0
1431,840,40,540,0
1432,830,40,540,0
1433,840,40,550,0
1434,840,40,550,0
1435,850,40,550,0
1436,840,40,550,0
1437,840,40,550,0
1438,840,40,540,0
1439,830,40,540,0
1440,840,40,540,0
1441,840,40,540,0
1442,830,40,550,0
1443,850,40,550,0
1444,840,40,550,0
1445,840,40,550,0
1446,850,40,540,0
1447,840,40,550,0
1448,840,40,550,0
1449,840,40,550,0
1450,840,40,550,0
1451,840,50,550,0
1452,850,40,540,0
1453,830,50,540,0
1454,840,40,540,0
1455,840,40,540,0
1456,840,40,550,0
1457,840,40,560,0
1458,840,40,550,0
1459,840,40,550,0
1460,840,40,550,0
1461,830,40,540,0
1462,840,40,540,0
1463,840,40,550,0
1464,840,40,550,0
1465,840,40,550,0
1466,830,40,550,0
1467,830,40,540,0
1468,850,40,550,0
1469,840,50,550,0
1470,830,40,550,0
1471,830,40,560,0
1472,840,50,560,0
1473,830,40,570,0
1474,840,40,570,0
1475,810,50,570,0
1476,820,50,570,0
1477,820,50,580,0
1478,810,50,580,0
1479,810,40,560,0
1480,800,60,580,0
1481,780,50,570,0
1482,850,60,590,0
1483,810,50,590,0
1484,780,60,580,0
1485,810,60,590,0
1486,780,50,590,0
1487,830,40,600,0
1488,780,60,610,0
1489,790,40,600,0
1490,750,70,610,0
1491,790,70,630,0
1492,780,50,590,0
1493,780,50,610,0
1494,740,70,670,0
1495,790,60,620,0
1496,790,50,590,0
1497,780,40,600,0
1498,760,40,590,0
1499,780,50,590,0
1500,780,50,600,0
1501,780,50,610,0
1502,780,60,600,0
1503,780,30,600,0
1504,810,50,600,0
1505,790,40,590,0
1506,790,40,590,0
1507,790,40,590,0
1508,810,40,590,0
1509,800,40,590,0
1510,790,40,590,0
1511,800,40,590,0
1512,800,40,590,0
1513,800,40,590,0
1514,800,50,590,0
1515,800,40,590,0
1516,790,40,590,0
1517,800,40,590,0
1518,800,40,590,0
1519,800,40,590,0
1520,800,40,590,0
1521,810,40,590,0
1522,810,40,590,0
1523,800,40,590,0
1524,810,40,590,0
1525,800,40,590,2000
1526,800,50,580,2000
1527,820,40,590,2000
1528,810,40,590,2000
1529,790,40,590,2000
1530,810,40,590,2000
1531,800,40,580,2000
1532,810,40,590,2000
1533,810,50,590,2000
1534,800,40,590,2000
1535,810,40,590,2000
1536,800,40,580,2000
1537,800,40,590,2000
1538,800,40,590,2000
1539,810,50,590,2000
1540,820,40,590,2000
1541,790,40,580,2000
1542,800,40,580,2000
1543,820,50,580,2000
1544,800,50,570,2000
1545,810,40,580,2000
1546,790,50,580,2000
1547,790,50,590,2000
1548,770,60,650,2000
1549,720,90,760,2000
1550,710,140,1080,2000
1551,710,330,1640,2000
1552,1100,490,1930,2000
1553,1040,490,1900,2000
1554,590,480,1500,2000
1555,840,540,1180,2000
1556,560,780,200,2000
1557,1050,800,-280,2000
1558,620,510,-460,2000
1559,690,150,-10,2000
1560,450,-220,440,2000
1561,510,-230,710,2000
1562,490,-320,670,2000
1563,600,-370,690,2000
1564,470,-340,730,2000
1565,520,-390,770,2000
1566,480,-370,780,2000
1567,500,-380,830,2000
1568,550,-370,810,2000
1569,470,-300,790,2000
1570,520,-260,700,2000
1571,550,-180,430,2000
1572,810,30,0,2000
1573,1440,580,-520,2000
1574,1620,1920,-1130,2000
1575,1170,1010,180,2000
1576,-330,830,1540,2000
1577,340,490,2580,2000
1578,910,390,1630,2000
1579,1820,10,890,2000
1580,1470,0,670,2000
1581,1210,80,610,2000
1582,960,40,670,2000
1583,940,-70,480,2000
1584,960,-40,260,2000
1585,980,-30,150,2000
1586,900,-40,190,2000
1587,900,50,200,2000
1588,990,-70,270,2000
1589,970,-60,330,2000
1590,960,30,430,2000
1591,1050,170,700,2000
1592,1120,340,990,2000
1593,1310,560,1380,2000
1594,1700,680,1840,2000
1595,1000,710,1960,2000
1596,1190,900,1420,2000
1597,970,1520,-210,2000
1598,1000,1930,-1390,2000
1599,1240,950,-1050,2000
1600,530,-430,-710,2000
1601,430,-100,320,2000
1602,310,-160,450,2000
1603,740,-360,280,2000
1604,720,-180,60,2000
1605,680,260,-500,2000
1606,1090,820,-1010,2000
1607,1020,1530,-900,2000
1608,1060,750,400,2000
1609,390,830,1410,2000
1610,1380,630,1980,2000
1611,1130,590,1300,2000
1612,1930,490,940,2000
1613,1180,420,610,2000
1614,1160,310,540,2000
1615,940,130,360,2000
1616,980,0,180,2000
1617,930,-20,0,2000
1618,1070,20,80,2000
1619,1000,0,120,2000
1620,910,100,120,2000
1621,1040,40,110,2000
1622,970,40,90,2000
1623,980,30,130,2000
1624,960,60,120,2000
1625,960,30,140,2000
1626,970,80,120,2000
1627,970,10,190,2000
1628,1000,100,200,2000
1629,1020,-10,110,2000
1630,950,110,120,2000
1631,940,110,180,2000
1632,960,70,220,2000
1633,950,30,200,2000
1634,980,60,150,2000
1635,970,50,210,2000
1636,970,60,250,2000
1637,900,60,280,2000
1638,950,40,300,2000
1639,930,80,280,2000
1640,1010,80,230,2000
1641,950,60,200,2000
1642,960,40,190,2000
1643,970,60,210,2000
1644,970,40,210,2000
1645,960,50,220,2000
1646,970,40,220,2000
1647,970,30,210,2000
1648,960,40,210,2000
1649,970,50,210,2000
1650,960,50,220,0
1651,960,40,220,0
1652,950,50,240,0
1653,960,20,250,0
1654,960,30,240,0
1655,960,30,230,0
1656,970,30,240,0
1657,960,40,230,0
1658,960,40,220,0
1659,970,30,220,0
1660,960,40,230,0
1661,960,30,220,0
1662,960,40,230,0
1663,960,40,230,0
1664,960,30,230,0
1665,960,30,220,0
1666,960,30,240,0
1667,960,30,230,0
1668,950,50,230,0
1669,960,30,230,0
1670,960,30,230,0
1671,960,30,230,0
1672,960,40,240,0
1673,960,40,230,0
1674,960,30,220,0
1675,960,30,230,0
1676,960,30,220,0
1677,960,40,230,0
1678,960,30,230,0
1679,960,30,230,0
1680,960,30,230,0
1681,960,30,230,0
1682,960,40,230,0
1683,960,30,230,0
1684,960,40,230,0
1685,960,30,230,0
1686,960,30,230,0
1687,960,30,230,0
1688,960,30,230,0
1689,960,30,230,0
1690,960,30,240,0
1691,960,30,230,0
1692,960,30,240,0
1693,960,40,240,0
1694,960,40,250,0
1695,960,40,250,0
1696,960,40,240,0
1697,960,30,240,0
1698,960,40,250,0
1699,960,40,250,0
1700,960,40,250,0
1701,950,40,250,0
1702,960,40,240,0
1703,960,50,250,0
1704,960,40,240,0
1705,960,60,250,0
1706,960,40,270,0
1707,960,50,260,0
1708,960,40,260,0
1709,960,50,260,0
1710,960,50,240,0
1711,950,50,270,0
1712,960,50,270,0
1713,960,60,320,0
1714,950,50,290,0
1715,960,50,280,0
1716,960,70,320,0
1717,950,30,260,0
1718,960,60,220,0
1719,950,60,260,0
1720,960,50,280,0
1721,1000,30,270,0
1722,980,40,320,0
1723,1040,90,440,0
1724,1090,190,610,0
1725,1210,270,870,2000
1726,1120,450,1000,2000
1727,1760,520,1230,2000
1728,1490,780,710,2000
1729,1090,920,280,2000
1730,1080,990,-330,2000
1731,730,720,-710,2000
1732,-270,270,-1290,2000
1733,-190,-270,-1070,2000
1734,-580,-330,-1420,2000
1735,-490,-520,-1390,2000
1736,0,-820,-690,2000
1737,-100,-1130,-790,2000
1738,110,-1180,-880,2000
1739,220,-1120,-1000,2000
1740,440,-1020,-810,2000
1741,480,-950,-650,2000
1742,370,-870,-720,2000
1743,210,-950,-840,2000
1744,200,-1000,-930,2000
1745,30,-1010,-1170,2000
1746,-150,-990,-1390,2000
1747,-220,-650,-1410,2000
1748,-90,-230,-1320,2000
1749,120,490,-1280,2000
1750,560,1460,-1160,2000
1751,750,1870,-640,2000
1752,930,1760,550,2000
1753,1160,1420,1560,2000
1754,1080,1050,2020,2000
1755,1340,440,1640,2000
1756,1140,280,1010,2000
1757,900,240,820,2000
1758,830,360,1130,2000
1759,1020,450,1360,2000
1760,1410,650,1450,2000
1761,1620,760,1370,2000
1762,1690,910,1130,2000
1763,1310,1170,220,2000
1764,1010,1420,-320,2000
1765,480,1590,-920,2000
1766,-700,540,-1920,2000
1767,-870,-470,-1690,2000
1768,-660,-770,-1340,2000
1769,-140,-1180,-520,2000
1770,-230,-1510,-810,2000
1771,-290,-1360,-1220,2000
1772,-390,-1080,-1390,2000
1773,-140,-640,-1150,2000
1774,130,-280,-980,2000
1775,440,170,-720,2000
1776,680,560,-530,2000
1777,960,890,-100,2000
1778,1460,750,1060,2000
1779,980,470,1280,2000
1780,1420,370,1540,2000
1781,1010,300,1160,2000
1782,1020,80,890,2000
1783,950,-30,520,2000
1784,690,-50,380,2000
1785,860,30,370,2000
1786,980,-40,520,2000
1787,900,-70,540,2000
1788,950,-60,480,2000
1789,840,60,380,2000
1790,910,10,480,2000
1791,950,-10,460,2000
1792,820,0,430,2000
1793,960,-10,440,2000
1794,880,0,420,2000
1795,920,10,440,2000
1796,890,30,410,2000
1797,920,10,440,2000
1798,930,0,450,2000
1799,930,20,430,2000
1800,900,-10,420,2000
1801,890,30,460,2000
1802,920,30,470,2000
1803,830,50,380,2000
1804,860,30,410,2000
1805,920,30,470,2000
1806,920,50,480,2000
1807,890,20,470,2000
1808,910,10,380,2000
1809,920,40,380,2000
1810,910,20,470,2000
1811,870,0,450,2000
1812,870,30,460,2000
1813,880,50,480,2000
1814,910,70,480,2000
1815,890,20,450,2000
1816,980,40,330,2000
1817,930,10,380,2000
1818,920,-10,420,2000
1819,900,20,430,2000
1820,880,30,440,2000
1821,930,10,440,2000
1822,920,20,420,2000
1823,910,10,430,2000
1824,900,10,420,2000
1825,900,10,430,0
1826,910,20,440,0
1827,900,10,430,0
1828,910,0,410,0
1829,910,0,420,0
1830,910,10,430,0
1831,900,10,420,0
1832,910,10,430,0
1833,920,0,430,0
1834,910,10,430,0
1835,910,0,430,0
1836,920,10,430,0
1837,900,10,440,0
1838,910,10,430,0
1839,910,10,430,0
1840,900,10,430,0
1841,900,0,430,0
1842,910,0,430,0
1843,900,10,440,0
1844,920,0,430,0
1845,900,10,430,0
1846,900,10,420,0
1847,910,10,440,0
1848,910,10,430,0
1849,910,10,450,0
1850,920,0,430,0
1851,890,10,430,0
1852,920,10,450,0
1853,910,20,440,0
1854,900,10,440,0
1855,900,10,450,0
1856,870,10,450,0
1857,900,20,460,0
1858,890,20,460,0
1859,880,10,450,0
1860,900,20,460,0
1861,900,20,470,0
1862,880,20,460,0
1863,870,20,460,0
1864,890,30,460,0
1865,870,20,470,0
1866,870,20,470,0
1867,890,20,470,0
1868,870,30,470,0
1869,870,20,470,0
1870,880,20,470,0
1871,880,20,470,0
1872,870,20,470,0
1873,870,30,470,0
1874,870,20,470,0
1875,880,30,470,0
1876,870,20,470,0
1877,870,20,470,0
1878,880,20,470,0
1879,870,20,460,0
1880,870,30,470,0
1881,860,30,460,0
1882,880,30,470,0
1883,860,20,470,0
1884,880,30,470,0
1885,880,30,470,0
1886,880,20,470,0
1887,880,20,470,0
1888,880,20,470,0
1889,880,30,470,0
1890,880,30,470,0
1891,880,20,470,0
1892,880,20,470,0
1893,880,20,470,0
1894,870,20,470,0
1895,880,20,470,0
1896,870,20,470,0
1897,870,20,470,0
1898,870,20,470,0
1899,890,20,470,0
1900,880,20,470,0
1901,870,20,470,0
1902,880,20,470,0
1903,880,30,470,0
1904,880,20,470,0
1905,890,20,470,0
1906,880,30,470,0
1907,870,30,470,0
1908,880,20,470,0
1909,870,20,470,0
1910,880,20,470,0
1911,890,20,470,0
1912,870,20,470,0
1913,870,20,470,0
1914,880,20,470,0
1915,880,20,470,0
1916,880,30,470,0
1917,870,30,470,0
1918,880,30,470,0
1919,880,30,470,0
1920,870,20,470,0
1921,870,20,470,0
1922,890,20,470,0
1923,880,20,470,0
1924,870,20,470,0
1925,880,30,470,0
1926,890,30,470,0
1927,880,20,470,0
1928,870,20,470,0
1929,880,20,470,0
1930,870,30,470,0
1931,870,20,470,0
1932,880,20,470,0
1933,870,20,470,0
1934,870,20,470,0
1935,870,20,470,0
1936,880,20,470,0
1937,880,20,470,0
1938,870,20,470,0
1939,870,20,470,0
1940,880,20,470,0
1941,870,10,470,0
1942,870,30,470,0
1943,870,20,480,0
1944,870,30,470,0
1945,870,20,470,0
1946,860,30,470,0
1947,890,0,480,0
1948,860,40,480,0
1949,870,20,480,0
1950,860,40,480,0
1951,860,20,500,0
1952,860,30,490,0
1953,860,40,490,0
1954,850,60,510,0
1955,860,0,490,0
1956,870,40,460,0
1957,890,30,470,0
1958,880,20,480,0
1959,860,30,470,0
1960,880,30,470,0
1961,870,20,470,0
1962,880,20,460,0
1963,870,40,470,0
1964,940,60,450,0
1965,860,20,450,0
1966,880,30,460,0
1967,880,30,460,0
1968,890,20,460,0
1969,900,20,460,0
1970,880,30,460,0
1971,900,30,460,0
1972,880,30,450,0
1973,890,30,450,0
1974,880,40,450,0
1975,900,30,440,2000
1976,890,30,440,2000
1977,880,50,430,2000
1978,890,50,450,2000
1979,920,50,460,2000
1980,940,20,450,2000
1981,880,10,430,2000
1982,910,10,440,2000
1983,900,10,440,2000
1984,900,30,450,2000
1985,890,50,450,2000
1986,910,50,430,2000
1987,900,40,430,2000
1988,910,30,420,2000
1989,920,10,430,2000
1990,900,30,430,2000
1991,910,30,440,2000
1992,900,50,430,2000
1993,900,50,430,2000
1994,910,30,420,2000
1995,910,20,420,2000
1996,920,20,430,2000
1997,900,40,440,2000
1998,890,100,460,2000
1999,860,190,480,2000
2000,870,210,480,2000
2001,880,210,470,2000
2002,930,110,480,2000
2003,900,150,520,2000
2004,870,200,550,2000
2005,880,180,510,2000
2006,970,130,480,2000
2007,920,80,480,2000
2008,800,120,590,2000
2009,780,170,770,2000
2010,810,160,930,2000
2011,850,130,1050,2000
2012,640,110,1030,2000
2013,810,100,980,2000
2014,820,-20,940,2000
2015,410,-120,840,2000
2016,540,-150,810,2000
2017,600,-170,780,2000
2018,460,-200,640,2000
2019,560,-240,580,2000
2020,550,-210,570,2000
2021,470,-230,500,2000
2022,510,-130,590,2000
2023,510,-140,620,2000
2024,520,-220,640,2000
2025,600,-230,670,2000
2026,670,-310,730,2000
2027,540,-230,730,2000
2028,570,-300,770,2000
2029,580,-290,800,2000
2030,440,-270,770,2000
2031,560,-310,800,2000
2032,510,-290,780,2000
2033,540,-320,800,2000
2034,590,-330,780,2000
2035,530,-310,700,2000
2036,630,-350,670,2000
2037,640,-290,580,2000
2038,530,-230,470,2000
2039,680,-220,510,2000
2040,570,-130,510,2000
2041,660,-130,650,2000
2042,600,-110,750,2000
2043,540,-60,850,2000
2044,590,-70,960,2000
2045,510,-20,1020,2000
2046,550,-10,1190,2000
2047,360,30,1190,2000
2048,450,20,1220,2000
2049,350,70,1140,2000
2050,420,70,1080,2000
2051,420,70,960,2000
2052,440,60,880,2000
2053,460,40,810,2000
2054,460,30,760,2000
2055,470,10,760,2000
2056,520,60,740,2000
2057,520,130,680,2000
2058,590,150,620,2000
2059,650,130,610,2000
2060,670,160,580,2000
2061,730,170,640,2000
2062,600,140,680,2000
2063,710,100,800,2000
2064,710,70,860,2000
2065,660,10,870,2000
2066,850,-30,940,2000
2067,730,-80,820,2000
2068,900,-130,870,2000
2069,860,-120,770,2000
2070,760,-90,690,2000
2071,880,-30,610,2000
2072,850,-20,540,2000
2073,880,-40,450,2000
2074,910,-100,430,2000
2075,910,-130,450,2000
2076,920,-80,490,2000
2077,880,20,590,2000
2078,810,160,670,2000
2079,800,240,710,2000
2080,800,270,650,2000
2081,770,250,580,2000
2082,880,190,530,2000
2083,850,110,470,2000
2084,860,100,490,2000
2085,860,50,490,2000
2086,930,50,550,2000
2087,780,10,520,2000
2088,890,50,470,2000
2089,870,10,490,2000
2090,870,0,470,2000
2091,870,-20,480,2000
2092,850,0,470,2000
2093,890,0,480,2000
2094,910,0,490,2000
2095,860,20,480,2000
2096,880,20,470,2000
2097,900,20,490,2000
2098,860,10,510,2000
2099,840,10,510,2000
2100,760,30,520,2000
2101,770,10,520,2000
2102,890,10,530,2000
2103,860,0,540,2000
2104,860,10,580,2000
2105,860,20,600,2000
2106,850,-10,560,2000
2107,850,20,440,2000
2108,850,10,490,2000
2109,840,0,510,2000
2110,860,40,590,2000
2111,780,60,590,2000
2112,840,10,570,2000
2113,870,10,490,2000
2114,850,30,470,2000
2115,860,10,490,2000
2116,850,20,480,2000
2117,870,50,470,2000
2118,870,0,480,2000
2119,870,10,480,2000
2120,890,20,480,2000
2121,870,20,480,2000
2122,870,10,480,2000
2123,860,10,480,2000
2124,870,30,480,2000
2125,860,20,480,0
2126,860,10,480,0
2127,860,10,480,0
2128,870,10,470,0
2129,870,0,480,0
2130,870,10,480,0
2131,870,10,480,0
2132,870,10,480,0
2133,870,10,480,0
2134,870,10,470,0
2135,880,10,480,0
2136,870,10,480,0
2137,870,10,480,0
2138,870,10,480,0
2139,870,10,480,0
2140,880,10,480,0
2141,870,10,480,0
2142,860,10,480,0
2143,870,10,480,0
2144,860,10,470,0
2145,870,10,480,0
2146,870,10,480,0
2147,870,10,480,0
2148,870,10,480,0
2149,870,10,480,0
2150,860,10,480,0
2151,860,10,480,0
2152,870,10,470,0
2153,860,10,480,0
2154,870,10,480,0
2155,860,20,480,0
2156,860,10,490,0
2157,860,0,490,0
2158,860,20,500,0
2159,860,20,490,0
2160,860,20,490,0
2161,850,10,490,0
2162,850,20,500,0
2163,860,20,500,0
2164,860,10,510,0
2165,860,10,500,0
2166,860,20,510,0
2167,860,20,500,0
2168,850,20,500,0
2169,860,20,500,0
2170,850,20,500,0
2171,860,20,510,0
2172,860,20,520,0
2173,860,10,520,0
2174,860,10,510,0
2175,860,10,510,0
2176,860,20,510,0
2177,860,20,510,0
2178,850,20,510,0
2179,850,20,510,0
2180,850,10,510,0
2181,850,10,510,0
2182,860,20,510,0
2183,860,10,520,0
2184,860,10,500,0
2185,850,20,520,0
2186,850,10,510,0
2187,850,20,510,0
2188,850,20,510,0
2189,860,10,520,0
2190,850,10,520,0
2191,860,10,520,0
2192,850,10,520,0
2193,850,10,520,0
2194,850,10,520,0
2195,850,10,520,0
2196,850,10,520,0
2197,850,10,520,0
2198,850,10,530,0
2199,850,10,530,0
2200,850,20,520,0
2201,850,10,520,0
2202,850,10,530,0
2203,850,10,520,0
2204,840,20,530,0
2205,850,10,530,0
2206,850,30,530,0
2207,850,10,550,0
2208,830,10,530,0
2209,850,30,530,0
2210,800,20,560,0
2211,850,20,550,0
2212,850,30,550,0
2213,820,10,570,0
2214,850,20,550,0
2215,840,0,560,0
2216,820,0,560,0
2217,860,40,540,0
2218,850,30,530,0
2219,850,20,510,0
2220,850,10,520,0
2221,840,20,530,0
2222,850,20,520,0
2223,850,20,530,0
2224,850,20,540,0
2225,850,20,520,2000
2226,850,20,520,2000
2227,850,20,520,2000
2228,850,30,500,2000
2229,850,60,520,2000
2230,860,0,520,2000
2231,860,10,510,2000
2232,850,20,520,2000
2233,860,20,520,2000
2234,850,30,520,2000
2235,850,20,500,2000
2236,850,20,510,2000
2237,850,20,520,2000
2238,850,20,510,2000
2239,850,20,510,2000
2240,850,20,510,2000
2241,850,10,510,2000
2242,850,20,510,2000
2243,850,30,510,2000
2244,850,30,560,2000
2245,850,50,630,2000
2246,750,40,740,2000
2247,720,80,960,2000
2248,640,40,1020,2000
2249,760,40,1040,2000
2250,910,0,950,2000
2251,710,-40,730,2000
2252,730,40,560,2000
2253,760,110,330,2000
2254,840,250,250,2000
2255,1040,280,260,2000
2256,750,300,270,2000
2257,900,400,320,2000
2258,830,430,210,2000
2259,1010,460,110,2000
2260,1050,480,-90,2000
2261,1220,520,-120,2000
2262,1020,500,-10,2000
2263,960,410,390,2000
2264,760,300,770,2000
2265,570,190,1330,2000
2266,600,210,1630,2000
2267,680,150,1770,2000
2268,930,40,1520,2000
2269,830,0,1110,2000
2270,920,80,1080,2000
2271,850,210,930,2000
2272,1040,430,680,2000
2273,1030,480,340,2000
2274,1180,570,90,2000
2275,600,490,-10,2000
2276,1010,560,-10,2000
2277,780,380,50,2000
2278,870,370,-20,2000
2279,960,350,-80,2000
2280,1060,520,-270,2000
2281,1080,730,-420,2000
2282,1070,600,-210,2000
2283,810,450,420,2000
2284,580,330,1140,2000
2285,830,280,1730,2000
2286,960,200,1650,2000
2287,1090,140,1590,2000
2288,920,80,1200,2000
2289,1200,20,1090,2000
2290,900,-20,970,2000
2291,910,160,940,2000
2292,1000,390,600,2000
2293,1330,540,280,2000
2294,770,520,60,2000
2295,870,660,-80,2000
2296,930,650,-10,2000
2297,790,480,-190,2000
2298,920,480,-230,2000
2299,1050,510,-260,2000
2300,940,460,-100,2000
2301,790,350,230,2000
2302,850,180,750,2000
2303,700,100,1090,2000
2304,400,60,1210,2000
2305,710,20,1210,2000
2306,930,30,1080,2000
2307,780,30,770,2000
2308,990,100,660,2000
2309,960,20,500,2000
2310,800,0,460,2000
2311,930,10,450,2000
2312,840,-10,450,2000
2313,860,20,470,2000
2314,950,10,460,2000
2315,860,30,470,2000
2316,940,20,470,2000
2317,910,30,470,2000
2318,890,10,460,2000
2319,900,30,480,2000
2320,850,30,500,2000
2321,840,20,530,2000
2322,810,10,480,2000
2323,800,20,510,2000
2324,900,0,510,2000
2325,930,30,470,2000
2326,870,30,470,2000
2327,830,0,490,2000
2328,870,0,470,2000
2329,870,80,480,2000
2330,830,40,560,2000
2331,850,20,540,2000
2332,850,-10,490,2000
2333,820,0,490,2000
2334,900,30,480,2000
2335,860,20,480,2000
2336,850,20,470,2000
2337,880,20,470,2000
2338,890,10,470,2000
2339,900,10,480,2000
2340,870,10,480,2000
2341,890,10,470,2000
2342,880,10,470,2000
2343,890,10,470,2000
2344,880,10,470,2000
2345,870,10,470,2000
2346,870,10,460,2000
2347,900,10,460,2000
2348,880,20,460,2000
2349,880,10,460,2000
2350,870,10,450,0
2351,870,10,460,0
2352,890,10,470,0
2353,890,10,470,0
2354,880,10,470,0
2355,890,10,470,0
2356,880,10,470,0
2357,880,10,470,0
2358,870,10,460,0
2359,870,20,470,0
2360,880,10,470,0
2361,890,10,470,0
2362,880,10,470,0
2363,880,10,470,0
2364,890,10,470,0
2365,880,10,460,0
2366,890,10,460,0
2367,880,10,470,0
2368,880,10,460,0
2369,880,10,460,0
2370,880,20,470,0
2371,890,10,470,0
2372,880,10,470,0
2373,870,10,470,0
2374,900,20,470,0
2375,890,10,470,0
2376,870,10,470,0
2377,880,0,470,0
2378,890,10,470,0
2379,900,0,480,0
2380,860,20,480,0
2381,860,20,470,0
2382,850,20,480,0
2383,860,10,490,0
2384,870,0,540,0
2385,860,20,490,0
2386,840,10,490,0
2387,870,-10,500,0
2388,920,20,500,0
2389,850,20,550,0
2390,860,30,510,0
2391,820,20,480,0
2392,850,10,520,0
2393,890,10,450,0
2394,890,0,450,0
2395,860,-10,480,0
2396,920,-30,480,0
2397,900,-20,470,0
2398,870,-10,470,0
2399,890,0,470,0
2400,880,0,470,2000
2401,890,0,470,2000
2402,890,0,470,2000
2403,870,0,460,2000
2404,880,-10,460,2000
2405,880,0,470,2000
2406,880,-10,460,2000
2407,890,-10,460,2000
2408,880,-10,460,2000
2409,870,-20,460,2000
2410,870,-20,460,2000
2411,870,-10,470,2000
2412,870,-20,470,2000
2413,880,-20,470,2000
2414,900,-30,460,2000
2415,910,-20,480,2000
2416,870,-10,540,2000
2417,840,10,610,2000
2418,600,40,730,2000
2419,800,180,770,2000
2420,1050,290,810,2000
2421,740,370,770,2000
2422,890,490,620,2000
2423,960,480,460,2000
2424,960,460,280,2000
2425,1030,360,180,2000
2426,1000,300,140,2000
2427,930,320,-180,2000
2428,1090,350,-280,2000
2429,850,310,-590,2000
2430,950,160,-720,2000
2431,950,80,-810,2000
2432,870,10,-850,2000
2433,940,-60,-830,2000
2434,910,-140,-800,2000
2435,910,-240,-790,2000
2436,950,-290,-770,2000
2437,1000,-250,-800,2000
2438,1040,-200,-830,2000
2439,1010,-120,-830,2000
2440,980,-40,-770,2000
2441,910,70,-720,2000
2442,930,170,-600,2000
2443,870,260,-550,2000
2444,960,460,-550,2000
2445,960,630,-420,2000
2446,920,720,-270,2000
2447,1100,710,-20,2000
2448,940,650,10,2000
2449,1070,600,200,2000
2450,1010,550,190,2000
2451,980,520,330,2000
2452,1070,490,510,2000
2453,1150,480,690,2000
2454,1220,470,730,2000
2455,1250,490,640,2000
2456,1230,590,580,2000
2457,1150,750,440,2000
2458,1050,850,190,2000
2459,1060,870,-60,2000
2460,930,740,-290,2000
2461,830,500,-300,2000
2462,920,460,-560,2000
2463,830,430,-630,2000
2464,830,350,-850,2000
2465,620,190,-990,2000
2466,610,90,-960,2000
2467,650,-100,-1140,2000
2468,740,-270,-1140,2000
2469,840,-480,-1110,2000
2470,960,-470,-1150,2000
2471,970,-370,-1050,2000
2472,960,-220,-1000,2000
2473,930,-60,-830,2000
2474,900,30,-710,2000
2475,920,220,-650,2000
2476,880,360,-470,2000
2477,870,470,-410,2000
2478,920,630,-100,2000
2479,950,620,120,2000
2480,1090,570,420,2000
2481,950,410,250,2000
2482,980,500,550,2000
2483,1040,390,570,2000
2484,1010,260,520,2000
2485,950,250,470,2000
2486,970,120,450,2000
2487,1030,50,320,2000
2488,1030,20,230,2000
2489,970,0,180,2000
2490,980,-10,110,2000
2491,960,0,110,2000
2492,920,50,100,2000
2493,980,50,130,2000
2494,990,40,150,2000
2495,960,50,160,2000
2496,990,50,170,2000
2497,970,40,160,2000
2498,970,40,180,2000
2499,980,30,180,2000
2500,960,40,190,2000
2501,980,40,190,2000
2502,970,50,200,2000
2503,990,30,190,2000
2504,960,70,220,2000
2505,960,60,220,2000
2506,950,100,230,2000
2507,940,50,220,2000
2508,960,60,240,2000
2509,960,80,270,2000
2510,960,90,270,2000
2511,950,80,300,2000
2512,960,10,270,2000
2513,950,20,230,2000
2514,960,110,160,2000
2515,940,50,280,2000
2516,950,40,280,2000
2517,940,80,330,2000
2518,950,110,350,2000
2519,990,0,320,2000
2520,960,50,240,2000
2521,910,240,180,2000
2522,960,80,210,2000
2523,940,30,220,2000
2524,950,60,210,2000
2525,950,60,210,0
2526,920,90,210,0
2527,940,110,270,0
2528,970,100,300,0
2529,980,80,310,0
2530,960,50,270,0
2531,970,40,260,0
2532,970,50,240,0
2533,960,70,220,0
2534,960,70,220,0
2535,960,70,220,0
2536,960,80,220,0
2537,960,70,220,0
2538,960,60,230,0
2539,960,50,230,0
2540,960,70,230,0
2541,960,60,220,0
2542,970,60,210,0
2543,970,50,220,0
2544,960,50,220,0
2545,960,50,220,0
2546,970,50,220,0
2547,960,50,220,0
2548,960,40,220,0
2549,960,40,220,0
2550,960,50,230,0
2551,960,80,230,0
2552,960,80,230,0
2553,960,80,230,0
2554,960,80,230,0
2555,960,80,240,0
2556,960,70,250,0
2557,960,80,250,0
2558,960,70,250,0
2559,960,60,240,0
2560,960,50,230,0
2561,950,50,240,0
2562,960,60,240,0
2563,960,60,250,0
2564,960,70,260,0
2565,960,60,260,0
2566,960,50,260,0
2567,960,60,270,0
2568,960,40,260,0
2569,960,50,260,0
2570,960,60,260,0
2571,960,60,270,0
2572,960,50,260,0
2573,950,70,270,0
2574,960,50,280,0
2575,960,60,300,0
2576,960,80,310,0
2577,950,50,310,0
2578,950,70,310,0
2579,930,100,350,0
2580,930,20,340,0
2581,920,100,340,0
2582,950,80,380,0
2583,920,90,380,0
2584,910,100,410,0
2585,880,100,450,0
2586,930,80,450,0
2587,870,80,300,0
2588,890,90,290,0
2589,950,70,340,0
2590,930,60,360,0
2591,920,70,360,0
2592,940,70,360,0
2593,940,90,350,0
2594,950,80,360,0
2595,950,80,350,0
2596,950,90,350,0
2597,950,80,350,0
2598,930,90,340,0
2599,930,90,340,0
2600,940,90,340,2000
2601,940,90,330,2000
2602,950,80,340,2000
2603,940,90,340,2000
2604,950,80,340,2000
2605,940,80,350,2000
2606,930,90,350,2000
2607,940,90,340,2000
2608,940,90,340,2000
2609,940,90,330,2000
2610,940,100,340,2000
2611,930,90,350,2000
2612,930,100,350,2000
2613,940,100,350,2000
2614,950,100,350,2000
2615,920,90,350,2000
2616,930,100,360,2000
2617,930,100,420,2000
2618,950,100,560,2000
2619,950,120,890,2000
2620,1500,220,1450,2000
2621,1270,380,1530,2000
2622,1560,490,1250,2000
2623,1910,510,1220,2000
2624,1440,400,940,2000
2625,970,300,970,2000
2626,1180,370,760,2000
2627,730,530,390,2000
2628,540,490,240,2000
2629,310,370,-60,2000
2630,-20,-120,-320,2000
2631,50,-490,-340,2000
2632,-190,-510,-220,2000
2633,-460,-410,-100,2000
2634,-240,-260,-30,2000
2635,-290,-130,-10,2000
2636,-170,70,-90,2000
2637,130,100,-10,2000
2638,420,-50,230,2000
2639,590,280,800,2000
2640,1030,210,1370,2000
2641,1030,350,1790,2000
2642,1290,140,1690,2000
2643,1400,200,1590,2000
2644,1290,80,1350,2000
2645,970,110,1110,2000
2646,890,100,960,2000
2647,720,110,730,2000
2648,770,190,610,2000
2649,730,230,540,2000
2650,730,240,610,2000
2651,730,250,610,2000
2652,730,260,650,2000
2653,760,250,630,2000
2654,740,260,600,2000
2655,750,240,610,2000
2656,730,240,640,2000
2657,760,260,820,2000
2658,890,340,1230,2000
2659,980,470,1500,2000
2660,970,480,1730,2000
2661,1400,680,2340,2000
2662,1100,600,2140,2000
2663,1090,620,1740,2000
2664,790,780,840,2000
2665,660,870,240,2000
2666,380,830,-310,2000
2667,160,210,-510,2000
2668,-150,-280,-560,2000
2669,-400,-520,-530,2000
2670,-500,-460,-380,2000
2671,-610,-330,-260,2000
2672,-660,-230,-240,2000
2673,-520,10,-300,2000
2674,-120,380,-280,2000
2675,470,750,200,2000
2676,850,780,1070,2000
2677,850,530,1820,2000
2678,980,630,2110,2000
2679,1050,370,2100,2000
2680,1150,470,1980,2000
2681,990,290,1800,2000
2682,700,220,1420,2000
2683,590,130,1040,2000
2684,480,170,820,2000
2685,480,230,740,2000
2686,520,270,590,2000
2687,710,190,570,2000
2688,930,30,470,2000
2689,1060,0,390,2000
2690,970,-120,370,2000
2691,1030,70,410,2000
2692,880,320,500,2000
2693,770,570,660,2000
2694,560,620,690,2000
2695,570,640,730,2000
2696,820,610,740,2000
2697,640,740,710,2000
2698,710,490,720,2000
2699,730,370,670,2000
2700,750,280,680,2000
2701,790,230,650,2000
2702,830,140,670,2000
2703,770,150,620,2000
2704,760,130,650,2000
2705,780,130,630,2000
2706,780,140,610,2000
2707,780,150,600,2000
2708,750,150,570,2000
2709,770,120,590,2000
2710,840,140,630,2000
2711,770,140,610,2000
2712,770,130,590,2000
2713,760,130,580,2000
2714,760,180,590,2000
2715,850,120,600,2000
2716,780,150,610,2000
2717,760,140,590,2000
2718,790,130,610,2000
2719,740,140,630,2000
2720,770,140,630,2000
2721,740,120,610,2000
2722,740,150,610,2000
2723,760,140,640,2000
2724,740,130,650,2000
2725,730,120,650,2000
2726,770,160,630,2000
2727,820,120,590,2000
2728,730,160,620,2000
2729,750,120,660,2000
2730,750,130,670,2000
2731,760,90,670,2000
2732,750,150,600,2000
2733,780,170,590,2000
2734,760,140,580,2000
2735,760,160,620,2000
2736,760,130,610,2000
2737,780,140,600,2000
2738,810,130,600,2000
2739,780,140,600,2000
2740,790,140,590,2000
2741,780,140,590,2000
2742,800,140,590,2000
2743,780,140,590,2000
2744,790,130,590,2000
2745,790,140,600,2000
2746,780,140,600,2000
2747,790,130,590,2000
2748,780,130,590,2000
2749,790,130,590,2000
2750,790,130,590,0
2751,780,130,580,0
2752,780,130,590,0
2753,780,120,590,0
2754,790,120,590,0
2755,800,120,590,0
2756,790,130,590,0
2757,780,130,590,0
2758,780,120,590,0
2759,790,120,590,0
2760,780,130,590,0
2761,780,120,590,0
2762,800,120,590,0
2763,790,120,590,0
2764,780,120,590,0
2765,780,120,580,0
2766,780,120,590,0
2767,800,120,590,0
2768,800,120,590,0
2769,810,120,590,0
2770,800,120,590,0
2771,790,120,590,0
2772,780,110,570,0
2773,800,120,570,0
2774,800,130,580,0
2775,800,130,580,0
2776,780,140,580,0
2777,790,140,580,0
2778,780,130,590,0
2779,790,140,590,0
2780,810,160,590,0
2781,840,90,590,0
2782,800,120,570,0
2783,790,120,570,0
2784,800,110,560,0
2785,800,120,570,0
2786,820,120,560,0
2787,800,120,570,0
2788,810,120,580,0
2789,810,110,570,0
2790,810,110,570,0
2791,800,120,570,0
2792,820,110,570,0
2793,820,110,560,0
2794,800,110,570,0
2795,820,110,560,0
2796,810,110,560,0
2797,820,110,560,0
2798,810,110,570,0
2799,830,110,560,0
2800,810,120,560,0
2801,820,110,550,0
2802,810,110,560,0
2803,830,110,560,0
2804,810,110,560,0
2805,820,110,560,0
2806,820,110,570,0
2807,820,110,570,0
2808,820,110,560,0
2809,820,110,560,0
2810,820,120,560,0
2811,810,110,560,0
2812,810,110,560,0
2813,820,110,560,0
2814,820,110,570,0
2815,810,110,570,0
2816,820,110,570,0
2817,810,110,570,0
2818,810,120,600,0
2819,810,110,590,0
2820,780,110,580,0
2821,790,110,600,0
2822,790,110,590,0
2823,790,110,580,0
2824,790,110,590,0
2825,800,110,590,0
2826,790,110,590,0
2827,790,110,590,0
2828,800,110,590,0
2829,800,110,580,0
2830,790,110,590,0
2831,790,110,570,0
2832,780,110,570,0
2833,800,110,590,0
2834,810,110,580,0
2835,800,110,590,0
2836,800,110,600,0
2837,790,110,570,0
2838,760,120,590,0
2839,790,100,580,0
2840,770,110,600,0
2841,770,100,580,0
2842,810,110,600,0
2843,810,100,610,0
2844,800,100,650,0
2845,750,100,600,0
2846,800,110,580,0
2847,800,120,590,0
2848,780,110,590,0
2849,780,110,590,0
2850,830,80,560,0
2851,800,110,570,0
2852,780,110,590,0
2853,790,110,580,0
2854,800,110,580,0
2855,810,110,580,0
2856,800,110,590,0
2857,790,110,580,0
2858,810,110,580,0
2859,800,110,580,0
2860,800,110,580,0
2861,800,110,580,0
2862,810,110,580,0
2863,810,110,580,0
2864,790,110,580,0
2865,800,110,580,0
2866,790,110,570,0
2867,790,110,580,0
2868,800,110,580,0
2869,800,110,580,0
2870,810,110,580,0
2871,800,110,580,0
2872,790,110,580,0
2873,820,110,580,0
2874,800,110,570,0
2875,810,110,580,2000
2876,800,110,580,2000
2877,800,120,570,2000
2878,810,110,580,2000
2879,800,110,580,2000
2880,800,110,570,2000
2881,810,110,570,2000
2882,800,120,580,2000
2883,800,110,580,2000
2884,810,110,570,2000
2885,810,110,580,2000
2886,800,110,580,2000
2887,800,110,570,2000
2888,820,110,570,2000
2889,810,120,580,2000
2890,800,120,560,2000
2891,810,120,560,2000
2892,810,120,560,2000
2893,800,120,560,2000
2894,810,110,560,2000
2895,820,110,550,2000
2896,800,110,560,2000
2897,800,110,590,2000
2898,790,120,650,2000
2899,830,120,830,2000
2900,860,220,1190,2000
2901,1120,380,1580,2000
2902,1070,490,1620,2000
2903,1260,560,1630,2000
2904,1290,550,1550,2000
2905,1240,450,1380,2000
2906,1060,390,1150,2000
2907,770,410,950,2000
2908,510,470,700,2000
2909,240,600,340,2000
2910,-60,410,-40,2000
2911,130,110,-330,2000
2912,90,-440,-420,2000
2913,-110,-710,-330,2000
2914,-230,-770,-110,2000
2915,-250,-920,70,2000
2916,-200,-900,190,2000
2917,-150,-1000,300,2000
2918,-140,-950,370,2000
2919,-70,-960,400,2000
2920,-70,-960,440,2000
2921,-120,-930,420,2000
2922,-90,-940,450,2000
2923,-130,-920,420,2000
2924,-130,-920,410,2000
2925,-140,-900,390,2000
2926,-150,-900,390,2000
2927,-150,-910,360,2000
2928,-150,-890,390,2000
2929,-210,-890,390,2000
2930,-220,-860,380,2000
2931,-220,-800,320,2000
2932,-380,-760,260,2000
2933,-340,-760,370,2000
2934,-460,-620,320,2000
2935,-360,-530,250,2000
2936,-220,-510,230,2000
2937,60,-380,320,2000
2938,-20,-390,410,2000
2939,380,-460,690,2000
2940,430,-690,860,2000
2941,1130,-650,1100,2000
2942,1220,-830,1070,2000
2943,1400,-840,1000,2000
2944,1220,-780,850,2000
2945,920,-650,680,2000
2946,700,-540,490,2000
2947,530,-450,270,2000
2948,500,-400,70,2000
2949,460,-260,-20,2000
2950,380,-230,-20,2000
2951,580,-70,70,2000
2952,680,-60,340,2000
2953,850,50,830,2000
2954,730,10,1410,2000
2955,710,70,1780,2000
2956,480,110,1840,2000
2957,570,240,1750,2000
2958,410,500,1590,2000
2959,30,620,1390,2000
2960,50,600,1130,2000
2961,160,610,880,2000
2962,170,540,650,2000
2963,430,490,600,2000
2964,510,380,590,2000
2965,830,330,740,2000
2966,960,150,790,2000
2967,1040,100,840,2000
2968,1320,-50,780,2000
2969,1450,-190,740,2000
2970,1490,-220,640,2000
2971,1480,-230,560,2000
2972,1300,-70,430,2000
2973,1070,100,430,2000
2974,900,250,470,2000
2975,780,520,590,2000
2976,610,750,810,2000
2977,490,770,860,2000
2978,510,850,850,2000
2979,700,730,760,2000
2980,730,780,670,2000
2981,760,520,620,2000
2982,800,350,600,2000
2983,1080,340,840,2000
2984,560,190,570,2000
2985,910,130,610,2000
2986,760,180,550,2000
2987,830,110,580,2000
2988,830,100,580,2000
2989,820,110,540,2000
2990,850,100,530,2000
2991,870,110,480,2000
2992,860,100,490,2000
2993,860,100,490,2000
2994,840,120,520,2000
2995,830,130,540,2000
2996,850,150,510,2000
2997,870,120,480,2000
2998,860,110,490,2000
2999,850,100,500,2000
3000,820,110,480,2000
3001,860,110,510,2000
3002,850,120,540,2000
3003,850,100,570,2000
3004,870,140,540,2000
3005,800,90,540,2000
3006,850,120,540,2000
3007,770,100,530,2000
3008,850,120,540,2000
3009,840,90,580,2000
3010,850,80,550,2000
3011,790,100,490,2000
3012,750,120,510,2000
3013,830,100,560,2000
3014,800,110,610,2000
3015,850,110,620,2000
3016,840,80,600,2000
3017,870,70,530,2000
3018,720,170,460,2000
3019,920,20,520,2000
3020,850,120,500,2000
3021,850,100,500,2000
3022,860,100,500,2000
3023,870,100,510,2000
3024,830,110,490,2000
3025,780,120,510,0
3026,770,120,530,0
3027,850,110,550,0
3028,910,100,550,0
3029,860,100,540,0
3030,830,110,520,0
3031,830,110,490,0
3032,850,90,480,0
3033,920,90,480,0
3034,860,90,480,0
3035,870,70,480,0
3036,870,70,480,0
3037,860,90,480,0
3038,870,80,480,0
3039,880,90,480,0
3040,890,100,480,0
3041,870,110,480,0
3042,860,120,500,0
3043,920,170,530,0
3044,920,180,560,0
3045,810,190,570,0
3046,780,150,570,0
3047,840,100,540,0
3048,840,30,550,0
3049,850,20,550,0
3050,810,0,580,0
3051,740,0,610,0
3052,770,0,600,0
3053,740,-20,670,0
3054,690,-30,680,0
3055,580,-10,670,0
3056,610,10,710,0
3057,690,50,740,0
3058,680,100,740,0
3059,620,120,750,0
3060,620,170,770,0
3061,580,170,810,0
3062,540,170,780,0
3063,570,160,820,0
3064,570,180,850,0
3065,530,170,860,0
3066,480,200,870,0
3067,510,200,870,0
3068,470,180,840,0
3069,520,150,840,0
3070,550,130,830,0
3071,530,160,800,0
3072,520,120,810,0
3073,510,110,830,0
3074,530,100,850,0
3075,570,100,840,0
3076,570,60,820,0
3077,550,20,860,0
3078,490,50,880,0
3079,500,30,890,0
3080,530,50,900,0
3081,540,50,880,0
3082,560,70,850,0
3083,580,40,840,0
3084,580,20,800,0
3085,570,10,780,0
3086,560,0,800,0
3087,540,-20,840,0
3088,530,-70,850,0
3089,530,-70,880,0
3090,550,-80,880,0
3091,560,-100,870,0
3092,550,-60,860,0
3093,520,-70,910,0
3094,470,-90,960,0
3095,440,-130,1020,0
3096,460,-180,1060,0
3097,520,-200,960,0
3098,520,-220,810,0
3099,470,-260,750,0
3100,390,-300,740,0
3101,420,-310,770,0
3102,440,-330,800,0
3103,370,-360,720,0
3104,350,-340,620,0
3105,470,-230,640,0
3106,640,-250,740,0
