sequence,accelx,accely,accelz,event
0,850,60,530,0
1,850,40,540,0
2,830,30,550,0
3,820,10,580,0
4,780,-10,590,0
5,800,-10,600,0
6,280,-120,940,0
7,210,10,980,0
8,210,10,990,0
9,190,30,990,0
10,200,10,1000,0
11,170,0,990,0
12,200,-30,980,0
13,210,-30,980,0
14,220,-20,990,0
15,240,-20,980,0
16,280,-20,960,0
17,340,-60,920,0
18,350,-110,940,0
19,270,-110,950,0
20,200,-80,980,0
21,180,-50,1030,0
22,210,-10,1050,0
23,200,10,1030,0
24,210,20,1020,0
25,180,40,990,0
26,170,50,980,0
27,130,50,960,0
28,130,30,950,0
29,110,10,940,0
30,110,0,970,0
31,160,-10,980,0
32,140,-20,980,0
33,110,-30,980,0
34,100,-10,980,0
35,90,10,1000,0
36,90,10,1000,0
37,100,10,990,0
38,140,0,980,0
39,110,10,980,0
40,120,10,980,0
41,120,0,980,0
42,100,0,980,0
43,120,0,990,0
44,90,0,990,0
45,140,0,980,0
46,110,0,970,0
47,120,-10,980,0
48,110,20,980,0
49,120,10,980,0
50,150,30,1000,0
51,80,30,980,0
52,90,20,990,0
53,60,20,980,0
54,70,30,980,0
55,70,40,990,0
56,90,0,990,0
57,40,70,990,0
58,-10,60,990,0
59,30,40,1010,0
60,70,40,1020,0
61,40,60,1030,0
62,100,10,1040,0
63,100,70,990,0
64,80,30,970,0
65,80,30,960,0
66,120,40,970,0
67,110,60,980,0
68,130,50,980,0
69,110,40,980,0
70,110,40,980,0
71,100,40,980,0
72,120,40,990,0
73,120,50,990,0
74,120,40,980,0
75,120,40,980,2000
76,120,40,990,2000
77,130,40,990,2000
78,110,40,980,2000
79,120,40,990,2000
80,120,40,980,2000
81,120,40,990,2000
82,130,40,980,2000
83,120,40,980,2000
84,130,40,980,2000
85,120,40,980,2000
86,130,40,980,2000
87,120,40,980,2000
88,120,40,980,2000
89,130,40,980,2000
90,130,40,980,2000
91,130,40,980,2000
92,140,40,980,2000
93,130,40,980,2000
94,140,40,980,2000
95,130,50,990,2000
96,140,60,1010,2000
97,110,70,990,2000
98,130,50,990,2000
99,130,40,980,2000
100,120,30,980,2000
101,90,0,990,2000
102,80,-20,1050,2000
103,20,-70,1140,2000
104,-60,-110,1220,2000
105,0,-120,1280,2000
106,60,-130,1330,2000
107,60,-150,1360,2000
108,10,-150,1310,2000
109,80,-150,1250,2000
110,100,-110,1090,2000
111,180,-60,1010,2000
112,120,-30,890,2000
113,-40,10,830,2000
114,-30,70,790,2000
115,-10,100,840,2000
116,-160,60,750,2000
117,-120,-20,790,2000
118,-150,-40,740,2000
119,-180,-40,700,2000
120,-130,0,700,2000
121,-150,50,670,2000
122,-90,80,720,2000
123,-20,180,740,2000
124,0,40,860,2000
125,-50,-10,890,2000
126,120,-110,980,2000
127,160,-120,1060,2000
128,150,-230,1090,2000
129,400,-220,1290,2000
130,170,-340,1220,2000
131,380,-320,1300,2000
132,290,-500,1180,2000
133,340,-450,1100,2000
134,320,-390,1120,2000
135,130,-220,1040,2000
136,190,-130,1020,2000
137,180,0,1090,2000
138,110,50,1180,2000
139,-130,130,1210,2000
140,-220,210,1350,2000
141,-90,190,1440,2000
142,160,210,1460,2000
143,430,0,1320,2000
144,170,40,1100,2000
145,590,70,1040,2000
146,370,150,840,2000
147,460,360,690,2000
148,690,270,700,2000
149,510,110,540,2000
150,570,40,630,2000
151,530,-20,590,2000
152,490,40,520,2000
153,630,100,630,2000
154,560,200,760,2000
155,300,270,670,2000
156,450,120,1020,2000
157,130,270,850,2000
158,110,160,1070,2000
159,60,230,1120,2000
160,-240,240,1070,2000
161,220,320,1270,2000
162,-210,370,1140,2000
163,100,360,1280,2000
164,10,290,1220,2000
165,60,260,1130,2000
166,190,210,1090,2000
167,260,160,1010,2000
168,300,140,970,2000
169,390,90,960,2000
170,350,70,910,2000
171,390,40,940,2000
172,350,40,910,2000
173,330,90,930,2000
174,390,80,960,2000
175,340,80,930,2000
176,390,70,950,2000
177,360,70,930,2000
178,360,70,940,2000
179,360,70,930,2000
180,370,50,920,2000
181,320,50,930,2000
182,390,40,950,2000
183,280,90,950,2000
184,400,50,940,2000
185,290,80,920,2000
186,350,80,960,2000
187,350,90,980,2000
188,340,70,1000,2000
189,310,30,950,2000
190,300,90,890,2000
191,400,60,910,2000
192,290,90,930,2000
193,360,50,950,2000
194,340,90,970,2000
195,290,40,980,2000
196,390,70,960,2000
197,360,60,930,2000
198,360,70,930,2000
199,380,60,930,2000
200,370,60,920,0
201,360,70,900,0
202,370,60,940,0
203,360,60,940,0
204,360,70,940,0
205,360,60,950,0
206,370,60,940,0
207,380,60,950,0
208,370,60,940,0
209,360,60,940,0
210,360,50,930,0
211,360,50,930,0
212,360,50,920,0
213,370,60,930,0
214,360,60,940,0
215,370,60,920,0
216,360,60,910,0
217,360,70,950,0
218,350,70,950,0
219,360,60,960,0
220,370,40,960,0
221,350,50,940,0
222,350,60,940,0
223,360,60,930,0
224,360,70,930,0
225,360,70,950,0
226,360,60,950,0
227,360,60,950,0
228,360,60,940,0
229,360,70,950,0
230,350,70,950,0
231,360,60,940,0
232,360,60,930,0
233,350,60,940,0
234,360,70,950,0
235,350,70,940,0
236,350,60,950,0
237,350,70,940,0
238,360,60,940,0
239,350,70,940,0
240,360,70,940,0
241,350,70,940,0
242,350,70,940,0
243,360,60,940,0
244,350,70,940,0
245,350,70,940,0
246,350,80,940,0
247,360,80,960,0
248,360,80,950,0
249,350,90,940,0
250,350,80,940,0
251,350,70,940,0
252,350,70,940,0
253,350,80,940,0
254,350,70,940,0
255,350,70,950,0
256,360,80,950,0
257,350,70,950,0
258,360,70,940,0
259,350,70,940,0
260,350,70,940,0
261,350,70,950,0
262,350,60,950,0
263,350,70,950,0
264,350,70,950,0
265,350,60,940,0
266,350,70,950,0
267,350,60,950,0
268,350,60,950,0
269,350,60,940,0
270,350,60,950,0
271,350,60,950,0
272,350,60,950,0
273,350,60,950,0
274,350,70,950,0
275,350,60,950,0
276,350,60,940,0
277,350,60,940,0
278,350,60,950,0
279,350,60,950,0
280,350,60,950,0
281,350,60,950,0
282,350,60,950,0
283,350,60,950,0
284,350,70,940,0
285,350,60,940,0
286,350,60,940,0
287,350,70,950,0
288,350,60,950,0
289,350,60,950,0
290,350,60,950,0
291,350,60,950,0
292,350,60,950,0
293,350,50,940,0
294,350,60,940,0
295,350,60,940,0
296,350,60,940,0
297,350,60,950,0
298,350,60,950,0
299,350,70,950,0
300,350,70,940,0
301,350,60,940,0
302,350,70,950,0
303,350,70,950,0
304,360,60,940,0
305,350,60,960,0
306,350,60,950,0
307,350,60,950,0
308,350,60,940,0
309,350,60,940,0
310,350,60,940,0
311,350,70,940,0
312,350,70,950,0
313,350,60,950,0
314,350,70,950,0
315,360,60,960,0
316,350,60,950,0
317,350,60,940,0
318,350,60,940,0
319,350,70,940,0
320,350,70,950,0
321,350,70,940,0
322,350,70,950,0
323,340,60,950,0
324,340,70,950,0
325,350,60,960,0
326,350,70,950,0
327,350,70,950,0
328,350,60,950,0
329,340,80,950,0
330,340,70,950,0
331,330,80,960,0
332,350,60,950,0
333,300,80,930,0
334,390,30,970,0
335,270,90,950,0
336,330,40,950,0
337,310,70,960,0
338,300,70,970,0
339,280,90,980,0
340,280,60,1000,0
341,400,60,980,0
342,340,50,900,0
343,340,80,900,0
344,350,70,930,0
345,350,60,920,0
346,350,60,920,0
347,350,70,950,0
348,350,70,960,0
349,350,70,960,0
350,350,70,950,2000
351,360,80,950,2000
352,350,70,940,2000
353,350,60,940,2000
354,350,70,950,2000
355,350,70,950,2000
356,350,60,950,2000
357,350,60,940,2000
358,350,60,950,2000
359,350,70,940,2000
360,350,70,950,2000
361,350,70,940,2000
362,350,80,950,2000
363,350,60,950,2000
364,350,70,950,2000
365,350,70,940,2000
366,360,70,950,2000
367,350,70,950,2000
368,360,60,940,2000
369,350,70,940,2000
370,380,40,940,2000
371,340,40,910,2000
372,280,50,930,2000
373,200,80,990,2000
374,210,100,1320,2000
375,140,270,1980,2000
376,380,450,2660,2000
377,400,520,2440,2000
378,960,470,2020,2000
379,640,510,1340,2000
380,820,460,840,2000
381,470,380,210,2000
382,110,240,-40,2000
383,210,90,-170,2000
384,-190,-70,-410,2000
385,-150,-170,-360,2000
386,-260,-130,-310,2000
387,-200,-10,-290,2000
388,-100,120,-220,2000
389,-170,250,-80,2000
390,280,450,650,2000
391,160,660,910,2000
392,1350,790,1380,2000
393,850,890,1600,2000
394,1320,810,2180,2000
395,600,1030,2320,2000
396,120,1210,2150,2000
397,230,1180,1890,2000
398,370,1170,2050,2000
399,570,1240,2100,2000
400,870,990,1860,2000
401,620,900,1160,2000
402,650,740,590,2000
403,370,440,90,2000
404,90,160,-150,2000
405,-40,-20,-200,2000
406,-170,-240,-300,2000
407,-240,-340,-350,2000
408,-100,-350,-350,2000
409,-100,-270,-330,2000
410,-140,-190,-260,2000
411,-70,-20,-110,2000
412,270,50,440,2000
413,300,250,1000,2000
414,460,190,1500,2000
415,560,440,1900,2000
416,370,300,1910,2000
417,530,370,1860,2000
418,290,310,1690,2000
419,280,310,1460,2000
420,320,220,1270,2000
421,280,240,1060,2000
422,440,210,990,2000
423,350,130,890,2000
424,430,120,880,2000
425,440,110,880,2000
426,450,110,870,2000
427,480,110,890,2000
428,450,110,890,2000
429,470,140,910,2000
430,460,130,870,2000
431,480,150,880,2000
432,470,140,890,2000
433,460,160,860,2000
434,460,170,870,2000
435,460,150,860,2000
436,460,140,860,2000
437,460,130,870,2000
438,460,160,880,2000
439,460,130,870,2000
440,460,140,880,2000
441,380,160,870,2000
442,510,140,910,2000
443,380,110,880,2000
444,470,140,890,2000
445,440,190,930,2000
446,430,150,940,2000
447,390,180,920,2000
448,480,100,810,2000
449,450,180,860,2000
450,430,110,890,2000
451,400,180,900,2000
452,450,170,890,2000
453,440,140,940,2000
454,430,130,940,2000
455,470,130,880,2000
456,440,160,860,2000
457,520,100,860,2000
458,460,150,850,2000
459,460,150,860,2000
460,470,130,880,2000
461,470,140,870,2000
462,470,140,890,2000
463,470,140,880,2000
464,470,140,870,2000
465,470,130,870,2000
466,470,130,870,2000
467,470,140,870,2000
468,460,140,870,2000
469,470,130,870,2000
470,470,130,860,2000
471,460,140,860,2000
472,470,130,870,2000
473,470,140,860,2000
474,460,140,870,2000
475,470,130,880,0
476,470,130,870,0
477,470,130,870,0
478,470,130,870,0
479,470,130,870,0
480,470,130,860,0
481,470,130,870,0
482,470,130,860,0
483,470,130,870,0
484,470,130,870,0
485,460,130,870,0
486,470,130,870,0
487,460,130,870,0
488,470,130,870,0
489,460,130,860,0
490,470,130,870,0
491,470,140,870,0
492,460,130,870,0
493,460,120,870,0
494,460,130,870,0
495,470,130,870,0
496,470,130,880,0
497,460,130,870,0
498,460,130,870,0
499,470,130,870,0
500,460,130,870,0
501,460,130,860,0
502,470,130,870,0
503,470,130,870,0
504,460,130,870,0
505,460,130,860,0
506,470,130,870,0
507,470,130,870,0
508,470,120,870,0
509,460,130,870,0
510,460,120,870,0
511,470,120,870,0
512,470,130,870,0
513,470,130,870,0
514,470,130,870,0
515,460,120,870,0
516,460,120,860,0
517,470,120,870,0
518,470,130,870,0
519,470,130,870,0
520,460,130,870,0
521,460,120,870,0
522,460,130,880,0
523,460,130,870,0
524,470,130,870,0
525,470,130,870,0
526,460,130,870,0
527,460,130,860,0
528,470,130,870,0
529,470,130,870,0
530,470,130,870,0
531,470,140,870,0
532,470,130,870,0
533,470,140,870,0
534,470,140,870,0
535,460,140,870,0
536,470,160,870,0
537,470,160,880,0
538,470,150,870,0
539,460,150,870,0
540,460,150,870,0
541,460,150,860,0
542,460,140,860,0
543,460,140,870,0
544,460,140,870,0
545,460,140,870,0
546,460,160,870,0
547,460,140,880,0
548,460,140,870,0
549,460,140,870,0
550,460,120,880,0
551,460,130,880,0
552,460,130,870,0
553,460,140,870,0
554,460,160,880,0
555,460,160,870,0
556,460,150,870,0
557,460,150,870,0
558,460,160,870,0
559,460,160,870,0
560,460,140,870,0
561,460,140,870,0
562,460,140,870,0
563,460,140,870,0
564,460,140,880,0
565,460,150,870,0
566,460,150,880,0
567,460,140,870,0
568,460,150,870,0
569,460,150,870,0
570,460,150,870,0
571,460,140,870,0
572,460,150,880,0
573,460,150,880,0
574,460,140,880,0
575,460,140,880,0
576,460,150,870,0
577,460,140,870,0
578,460,140,870,0
579,460,130,870,0
580,460,130,870,0
581,460,130,870,0
582,460,140,880,0
583,460,130,880,0
584,460,140,880,0
585,460,130,880,0
586,460,140,880,0
587,460,150,870,0
588,460,140,870,0
589,460,150,870,0
590,460,150,880,0
591,460,140,880,0
592,460,130,880,0
593,460,140,880,0
594,460,130,870,0
595,460,130,870,0
596,460,130,870,0
597,460,140,880,0
598,460,140,880,0
599,460,140,870,0
600,460,150,880,0
601,460,140,880,0
602,460,140,870,0
603,460,140,870,0
604,460,130,870,0
605,460,130,870,0
606,460,140,870,0
607,460,140,880,0
608,460,130,870,0
609,460,140,880,0
610,460,140,880,0
611,460,140,870,0
612,460,140,870,0
613,460,140,870,0
614,460,140,870,0
615,460,130,880,0
616,460,130,870,0
617,460,140,870,0
618,460,140,880,0
619,460,130,880,0
620,460,140,880,0
621,460,140,880,0
622,460,140,880,0
623,460,140,870,0
624,460,140,870,0
625,460,140,880,0
626,460,140,870,0
627,460,140,870,0
628,460,140,880,0
629,460,140,880,0
630,460,140,880,0
631,460,140,880,0
632,460,140,870,0
633,460,140,880,0
634,460,140,870,0
635,460,140,880,0
636,460,140,880,0
637,460,140,870,0
638,460,140,870,0
639,460,140,870,0
640,460,140,870,0
641,460,140,870,0
642,460,140,880,0
643,460,140,880,0
644,460,140,880,0
645,460,140,880,0
646,460,150,880,0
647,460,140,870,0
648,460,140,870,0
649,460,140,870,0
650,460,140,870,0
651,460,140,880,0
652,460,130,880,0
653,460,130,880,0
654,460,140,890,0
655,460,140,870,0
656,460,140,870,0
657,460,140,870,0
658,460,140,870,0
659,460,140,870,0
660,460,140,880,0
661,460,140,880,0
662,460,130,880,0
663,460,140,880,0
664,460,130,880,0
665,460,140,870,0
666,460,140,870,0
667,460,150,870,0
668,460,140,880,0
669,460,140,880,0
670,460,140,880,0
671,460,150,890,0
672,440,150,880,0
673,450,140,880,0
674,450,150,890,0
675,450,140,900,0
676,440,130,900,0
677,440,140,900,0
678,450,130,900,0
679,440,140,890,0
680,450,130,890,0
681,440,140,890,0
682,430,120,890,0
683,450,140,890,0
684,420,150,890,0
685,440,100,890,0
686,410,170,890,0
687,380,170,900,0
688,420,140,940,0
689,420,140,930,0
690,410,150,940,0
691,410,160,960,0
692,440,120,910,0
693,430,140,880,0
694,420,160,890,0
695,430,140,870,0
696,440,140,870,0
697,430,150,880,0
698,440,140,880,0
699,450,140,890,0
700,430,160,890,2000
701,460,130,900,2000
702,450,140,890,2000
703,450,140,880,2000
704,450,130,890,2000
705,450,140,890,2000
706,450,130,880,2000
707,450,130,890,2000
708,460,130,890,2000
709,450,130,880,2000
710,460,130,890,2000
711,450,130,890,2000
712,450,140,890,2000
713,450,130,890,2000
714,450,130,890,2000
715,460,130,890,2000
716,460,120,880,2000
717,460,120,900,2000
718,450,100,950,2000
719,370,80,1010,2000
720,310,10,1090,2000
721,230,-50,1360,2000
722,210,40,1820,2000
723,280,170,2220,2000
724,460,200,2120,2000
725,630,260,1580,2000
726,470,320,850,2000
727,570,380,370,2000
728,620,290,130,2000
729,70,130,-40,2000
730,20,30,300,2000
731,-360,120,670,2000
732,-750,80,1120,2000
733,-520,80,1380,2000
734,-320,20,1320,2000
735,240,-150,1110,2000
736,450,-530,670,2000
737,870,-670,160,2000
738,970,-910,-450,2000
739,940,-1040,-800,2000
740,840,-1030,-880,2000
741,740,-920,-860,2000
742,720,-770,-790,2000
743,670,-420,-800,2000
744,610,-240,-660,2000
745,770,60,-480,2000
746,830,160,110,2000
747,1080,510,1300,2000
748,800,360,1890,2000
749,1060,320,1850,2000
750,680,260,1620,2000
751,730,330,1540,2000
752,480,390,1460,2000
753,480,380,1230,2000
754,580,460,1090,2000
755,600,530,930,2000
756,720,550,870,2000
757,800,470,830,2000
758,850,400,790,2000
759,790,250,590,2000
760,940,140,460,2000
761,1200,-40,340,2000
762,1240,-90,120,2000
763,1230,-250,160,2000
764,990,-230,250,2000
765,950,-210,440,2000
766,730,-150,560,2000
767,720,-100,650,2000
768,660,-60,670,2000
769,760,-50,620,2000
770,860,-100,480,2000
771,930,-40,410,2000
772,1000,-40,390,2000
773,1000,40,430,2000
774,960,70,520,2000
775,880,180,660,2000
776,740,350,770,2000
777,900,280,870,2000
778,650,470,760,2000
779,770,360,790,2000
780,630,340,680,2000
781,760,240,670,2000
782,830,170,610,2000
783,740,170,580,2000
784,870,80,590,2000
785,810,50,550,2000
786,850,10,550,2000
787,860,-10,540,2000
788,840,0,540,2000
789,820,10,510,2000
790,840,20,530,2000
791,850,30,520,2000
792,870,50,550,2000
793,840,40,540,2000
794,850,30,530,2000
795,850,40,550,2000
796,840,40,510,2000
797,840,40,530,2000
798,860,30,540,2000
799,840,50,570,2000
800,840,20,550,2000
801,790,70,540,2000
802,830,40,550,2000
803,760,80,600,2000
804,810,40,600,2000
805,770,60,580,2000
806,830,50,590,2000
807,780,60,610,2000
808,820,90,650,2000
809,800,80,630,2000
810,820,0,530,2000
811,800,110,540,2000
812,810,-10,540,2000
813,740,100,560,2000
814,800,90,610,2000
815,780,90,630,2000
816,820,10,610,2000
817,850,80,570,2000
818,800,80,570,2000
819,790,30,590,2000
820,800,50,580,2000
821,780,60,560,2000
822,830,50,600,2000
823,780,50,600,2000
824,800,30,590,2000
825,770,50,600,0
826,800,40,580,0
827,810,50,590,0
828,790,50,590,0
829,810,50,600,0
830,780,40,600,0
831,790,40,590,0
832,800,50,590,0
833,790,40,600,0
834,790,50,590,0
835,790,40,590,0
836,780,50,600,0
837,790,50,600,0
838,810,50,590,0
839,800,50,590,0
840,790,50,590,0
841,790,40,590,0
842,800,50,590,0
843,780,40,590,0
844,820,50,600,0
845,790,40,590,0
846,790,50,590,0
847,840,70,590,0
848,790,50,590,0
849,810,50,590,0
850,810,60,580,0
851,800,60,590,0
852,800,50,590,0
853,800,50,590,0
854,800,50,580,0
855,800,50,580,0
856,800,50,590,0
857,790,60,580,0
858,810,50,580,0
859,800,60,590,0
860,800,50,590,0
861,800,50,590,0
862,810,60,590,0
863,800,50,580,0
864,800,50,590,0
865,790,50,580,0
866,810,50,580,0
867,810,60,590,0
868,800,50,590,0
869,800,50,590,0
870,800,50,590,0
871,810,50,590,0
872,800,50,580,0
873,810,50,580,0
874,800,50,580,0
875,810,50,590,0
876,790,50,580,0
877,810,50,590,0
878,810,50,580,0
879,810,60,580,0
880,800,50,580,0
881,810,50,580,0
882,800,50,580,0
883,810,50,590,0
884,810,50,580,0
885,810,50,580,0
886,810,50,590,0
887,800,50,590,0
888,810,40,580,0
889,800,50,580,0
890,810,50,590,0
891,800,50,580,0
892,800,50,580,0
893,810,50,580,0
894,810,50,590,0
895,800,50,590,0
896,800,50,590,0
897,810,50,580,0
898,810,50,590,0
899,800,50,580,0
900,810,50,580,0
901,810,50,580,0
902,810,50,590,0
903,800,50,590,0
904,790,50,590,0
905,820,60,580,0
906,800,50,580,0
907,800,50,580,0
908,800,50,580,0
909,800,50,590,0
910,810,60,590,0
911,800,60,590,0
912,800,50,590,0
913,800,60,590,0
914,770,70,610,0
915,810,70,600,0
916,740,80,640,0
917,810,30,620,0
918,760,60,640,0
919,750,70,670,0
920,770,60,620,0
921,730,100,650,0
922,760,90,680,0
923,730,90,680,0
924,800,70,630,0
925,760,60,600,0
926,770,50,600,0
927,760,60,600,0
928,780,60,600,0
929,770,60,610,0
930,780,50,610,0
931,760,70,610,0
932,780,50,620,0
933,770,60,610,0
934,780,60,610,0
935,770,60,620,0
936,770,50,620,0
937,770,50,620,0
938,770,60,610,0
939,780,50,610,0
940,770,60,610,0
941,780,60,600,0
942,770,60,610,0
943,770,60,610,0
944,770,60,610,0
945,780,70,610,0
946,770,70,620,0
947,770,70,620,0
948,770,60,610,0
949,770,70,610,0
950,770,70,610,2000
951,760,70,610,2000
952,770,70,620,2000
953,760,70,620,2000
954,770,70,610,2000
955,770,70,610,2000
956,770,80,620,2000
957,760,70,610,2000
958,770,70,620,2000
959,770,70,630,2000
960,770,70,620,2000
961,760,70,610,2000
962,770,70,620,2000
963,770,70,620,2000
964,760,70,620,2000
965,760,70,600,2000
966,780,80,610,2000
967,770,70,600,2000
968,760,70,600,2000
969,800,20,610,2000
970,770,60,640,2000
971,760,30,670,2000
972,720,90,830,2000
973,600,140,1090,2000
974,1130,310,1800,2000
975,1000,610,2120,2000
976,1400,710,1990,2000
977,1470,740,1500,2000
978,1260,680,1060,2000
979,830,600,640,2000
980,510,530,270,2000
981,340,440,70,2000
982,-20,220,-240,2000
983,-20,-60,-460,2000
984,-130,-240,-520,2000
985,-180,-160,-410,2000
986,-260,60,-380,2000
987,-120,210,-240,2000
988,200,410,40,2000
989,400,470,720,2000
990,710,570,1420,2000
991,800,230,1820,2000
992,1020,190,2060,2000
993,890,120,1880,2000
994,780,150,1810,2000
995,530,170,1530,2000
996,520,270,1270,2000
997,600,250,990,2000
998,530,240,810,2000
999,590,200,750,2000
1000,520,190,760,2000
1001,540,220,750,2000
1002,590,210,760,2000
1003,580,220,750,2000
1004,660,200,740,2000
1005,690,140,740,2000
1006,740,40,730,2000
1007,750,-70,730,2000
1008,590,-100,700,2000
1009,700,-90,740,2000
1010,610,40,750,2000
1011,620,200,820,2000
1012,640,260,810,2000
1013,700,250,760,2000
1014,670,180,640,2000
1015,640,150,630,2000
1016,770,110,740,2000
1017,730,30,720,2000
1018,720,20,670,2000
1019,710,30,600,2000
1020,780,60,680,2000
1021,780,60,700,2000
1022,760,90,690,2000
1023,770,70,680,2000
1024,760,50,670,2000
1025,740,60,670,2000
1026,760,30,670,2000
1027,760,20,660,2000
1028,770,30,650,2000
1029,740,20,610,2000
1030,730,50,650,2000
1031,730,30,680,2000
1032,700,40,740,2000
1033,660,-10,700,2000
1034,730,80,710,2000
1035,660,50,740,2000
1036,730,50,770,2000
1037,740,-20,720,2000
1038,640,60,670,2000
1039,750,30,700,2000
1040,670,50,690,2000
1041,730,50,680,2000
1042,720,30,720,2000
1043,720,40,760,2000
1044,740,0,720,2000
1045,720,50,690,2000
1046,730,40,700,2000
1047,730,50,710,2000
1048,730,40,700,2000
1049,730,40,680,2000
1050,720,50,690,0
1051,750,30,680,0
1052,720,40,670,0
1053,730,40,680,0
1054,740,40,690,0
1055,730,40,680,0
1056,730,40,690,0
1057,730,40,690,0
1058,730,40,680,0
1059,730,40,690,0
1060,730,40,690,0
1061,730,40,690,0
1062,730,40,690,0
1063,730,40,680,0
1064,730,40,680,0
1065,730,40,690,0
1066,730,40,690,0
1067,730,40,700,0
1068,730,40,690,0
1069,730,30,690,0
1070,730,30,680,0
1071,730,40,680,0
1072,730,40,690,0
1073,730,40,680,0
1074,730,40,690,0
1075,730,40,700,0
1076,730,40,700,0
1077,730,50,690,0
1078,730,40,690,0
1079,730,40,690,0
1080,730,50,680,0
1081,730,50,690,0
1082,730,50,700,0
1083,730,50,700,0
1084,730,40,700,0
1085,730,40,700,0
1086,730,40,690,0
1087,730,40,690,0
1088,730,40,700,0
1089,730,40,700,0
1090,730,40,690,0
1091,730,40,690,0
1092,730,50,690,0
1093,730,50,700,0
1094,730,40,700,0
1095,730,40,690,0
1096,730,50,700,0
1097,730,50,690,0
1098,730,40,690,0
1099,730,50,690,0
1100,730,50,700,0
1101,730,50,700,0
1102,730,50,690,0
1103,730,50,690,0
1104,730,50,690,0
1105,730,50,690,0
1106,730,50,700,0
1107,730,50,690,0
1108,730,50,700,0
1109,730,50,700,0
1110,730,50,690,0
1111,730,50,690,0
1112,730,50,690,0
1113,730,50,690,0
1114,730,50,700,0
1115,730,50,690,0
1116,730,60,700,0
1117,730,60,700,0
1118,730,50,700,0
1119,730,60,700,0
1120,730,50,690,0
1121,730,50,690,0
1122,730,50,690,0
1123,730,60,690,0
1124,730,50,700,0
1125,730,50,690,0
1126,730,50,700,0
1127,730,50,690,0
1128,730,50,690,0
1129,730,50,690,0
1130,730,50,690,0
1131,730,50,690,0
1132,730,50,690,0
1133,730,50,700,0
1134,730,50,690,0
1135,730,50,690,0
1136,730,50,690,0
1137,730,50,690,0
1138,730,50,680,0
1139,730,50,680,0
1140,730,50,680,0
1141,730,50,680,0
1142,740,60,700,0
1143,760,80,740,0
1144,740,70,700,0
1145,680,50,620,0
1146,690,80,610,0
1147,700,30,640,0
1148,730,10,700,0
1149,730,10,740,0
1150,740,0,750,0
1151,680,0,690,0
1152,750,40,650,0
1153,800,70,680,0
1154,730,70,650,0
1155,750,50,670,0
1156,730,70,680,0
1157,730,60,680,0
1158,740,60,670,0
1159,730,50,670,0
1160,730,20,670,0
1161,730,30,660,0
1162,740,30,670,0
1163,750,30,670,0
1164,740,40,670,0
1165,740,40,660,0
1166,760,70,660,0
1167,760,70,670,0
1168,760,80,670,0
1169,740,80,660,0
1170,750,90,670,0
1171,750,80,670,0
1172,730,80,660,0
1173,730,80,650,0
1174,740,40,650,0
1175,760,20,670,0
1176,720,70,650,0
1177,750,60,680,0
1178,760,60,680,0
1179,730,80,670,0
1180,730,60,670,0
1181,730,70,680,0
1182,710,50,660,0
1183,750,70,690,0
1184,680,40,670,0
1185,750,60,690,0
1186,720,70,710,0
1187,760,50,720,0
1188,710,30,710,0
1189,680,90,740,0
1190,690,60,720,0
1191,690,70,730,0
1192,720,60,730,0
1193,770,90,700,0
1194,700,60,650,0
1195,730,40,670,0
1196,730,100,690,0
1197,740,60,680,0
1198,730,70,680,0
1199,750,60,680,0
1200,730,60,690,2000
1201,730,60,680,2000
1202,730,70,680,2000
1203,730,70,670,2000
1204,740,70,670,2000
1205,730,80,670,2000
1206,730,80,680,2000
1207,730,70,690,2000
1208,730,80,690,2000
1209,730,80,680,2000
1210,730,80,690,2000
1211,730,70,690,2000
1212,730,70,680,2000
1213,730,80,680,2000
1214,730,80,690,2000
1215,730,80,680,2000
1216,730,70,690,2000
1217,690,80,640,2000
1218,640,100,670,2000
1219,590,80,780,2000
1220,640,130,1190,2000
1221,1080,340,2070,2000
1222,980,580,2470,2000
1223,1260,660,2210,2000
1224,1720,650,1570,2000
1225,1440,570,940,2000
1226,930,490,510,2000
1227,580,540,170,2000
1228,-210,460,-320,2000
1229,50,230,-470,2000
1230,-70,90,-690,2000
1231,-100,-40,-660,2000
1232,-110,80,-610,2000
1233,-70,220,-520,2000
1234,170,360,-280,2000
1235,320,480,470,2000
1236,660,610,970,2000
1237,1430,1110,1470,2000
1238,1600,1110,2440,2000
1239,1110,1190,2870,2000
1240,760,1110,2860,2000
1241,400,1100,2460,2000
1242,470,1110,2110,2000
1243,940,1070,2030,2000
1244,1430,950,1650,2000
1245,550,940,930,2000
1246,1020,970,340,2000
1247,210,620,-170,2000
1248,-10,210,-460,2000
1249,-20,0,-390,2000
1250,-350,-220,-510,2000
1251,-230,-280,-490,2000
1252,-120,-210,-480,2000
1253,-100,-90,-480,2000
1254,50,120,-410,2000
1255,300,230,30,2000
1256,380,300,1010,2000
1257,440,380,1540,2000
1258,830,350,1990,2000
1259,920,290,1850,2000
1260,900,110,2060,2000
1261,590,-20,1730,2000
1262,770,-20,1490,2000
1263,600,-100,1140,2000
1264,840,-80,970,2000
1265,670,10,780,2000
1266,560,150,790,2000
1267,540,290,810,2000
1268,570,340,830,2000
1269,550,260,800,2000
1270,700,220,750,2000
1271,610,130,730,2000
1272,730,100,700,2000
1273,710,100,710,2000
1274,730,40,730,2000
1275,690,10,740,2000
1276,710,10,730,2000
1277,730,40,730,2000
1278,730,10,730,2000
1279,720,20,730,2000
1280,730,30,720,2000
1281,730,20,690,2000
1282,730,30,700,2000
1283,730,30,680,2000
1284,730,20,690,2000
1285,720,20,720,2000
1286,710,30,720,2000
1287,750,0,670,2000
1288,720,40,670,2000
1289,750,30,710,2000
1290,750,40,720,2000
1291,770,40,750,2000
1292,680,50,740,2000
1293,730,-50,630,2000
1294,690,90,690,2000
1295,730,0,750,2000
1296,690,30,740,2000
1297,710,40,730,2000
1298,700,30,730,2000
1299,650,60,680,2000
1300,730,60,650,2000
1301,730,30,650,2000
1302,740,60,680,2000
1303,770,20,690,2000
1304,730,30,680,2000
1305,760,30,700,2000
1306,740,20,690,2000
1307,730,10,650,2000
1308,740,10,660,2000
1309,740,30,660,2000
1310,750,20,640,2000
1311,750,20,660,2000
1312,750,20,670,2000
1313,750,20,660,2000
1314,750,20,670,2000
1315,770,10,670,2000
1316,750,10,660,2000
1317,730,10,650,2000
1318,750,10,640,2000
1319,740,20,660,2000
1320,740,20,670,2000
1321,750,10,660,2000
1322,740,10,670,2000
1323,740,10,670,2000
1324,750,10,680,2000
1325,750,10,670,0
1326,740,10,670,0
1327,740,10,670,0
1328,740,10,670,0
1329,740,20,670,0
1330,740,10,670,0
1331,740,10,670,0
1332,740,10,670,0
1333,750,10,670,0
1334,730,10,670,0
1335,740,10,670,0
1336,740,20,670,0
1337,740,20,670,0
1338,740,10,670,0
1339,740,10,670,0
1340,740,20,670,0
1341,740,10,670,0
1342,740,10,670,0
1343,730,20,660,0
1344,740,10,660,0
1345,740,20,650,0
1346,740,20,660,0
1347,740,20,670,0
1348,740,20,680,0
1349,740,20,670,0
1350,740,20,670,0
1351,740,30,670,0
1352,740,20,670,0
1353,730,20,670,0
1354,750,20,680,0
1355,740,20,660,0
1356,740,20,670,0
1357,740,30,680,0
1358,740,20,670,0
1359,750,20,660,0
1360,740,20,670,0
1361,740,20,670,0
1362,740,20,670,0
1363,740,20,670,0
1364,740,20,670,0
1365,750,20,670,0
1366,740,20,660,0
1367,740,20,670,0
1368,740,20,660,0
1369,740,20,670,0
1370,740,20,680,0
1371,740,20,670,0
1372,740,20,680,0
1373,750,20,670,0
1374,740,20,660,0
1375,740,20,670,0
1376,740,20,670,0
1377,740,20,670,0
1378,730,20,670,0
1379,740,20,670,0
1380,740,20,670,0
1381,740,20,660,0
1382,740,10,660,0
1383,730,10,670,0
1384,740,20,680,0
1385,730,20,680,0
1386,740,10,710,0
1387,730,20,700,0
1388,730,10,700,0
1389,730,20,700,0
1390,730,20,700,0
1391,730,20,690,0
1392,730,20,690,0
1393,720,20,690,0
1394,730,20,700,0
1395,730,20,700,0
1396,720,20,700,0
1397,730,20,710,0
1398,730,20,710,0
1399,730,20,710,0
1400,720,20,710,0
1401,730,30,710,0
1402,730,20,710,0
1403,720,20,710,0
1404,720,20,710,0
1405,720,20,710,0
1406,720,20,720,0
1407,720,10,710,0
1408,710,20,720,0
1409,720,20,720,0
1410,720,20,720,0
1411,710,20,720,0
1412,710,30,720,0
1413,720,20,730,0
1414,710,20,720,0
1415,720,30,730,0
1416,700,30,730,0
1417,720,20,730,0
1418,680,20,730,0
1419,700,30,730,0
1420,690,30,740,0
1421,710,30,730,0
1422,690,20,730,0
1423,700,20,740,0
1424,690,20,740,0
1425,680,20,740,0
1426,680,30,720,0
1427,660,50,720,0
1428,700,20,730,0
1429,720,30,730,0
1430,660,20,790,0
1431,690,20,820,0
1432,630,40,760,0
1433,650,20,710,0
1434,760,90,670,0
1435,670,30,710,0
1436,690,30,740,0
1437,710,30,730,0
1438,710,20,730,0
1439,720,30,730,0
1440,710,40,720,0
1441,720,40,710,0
1442,710,40,700,0
1443,730,40,710,0
1444,700,30,700,0
1445,720,20,720,0
1446,720,20,710,0
1447,720,20,720,0
1448,720,20,720,0
1449,720,30,710,0
1450,730,20,720,2000
1451,720,30,720,2000
1452,720,30,710,2000
1453,720,30,710,2000
1454,720,20,700,2000
1455,720,20,700,2000
1456,720,30,710,2000
1457,730,20,710,2000
1458,730,20,720,2000
1459,720,20,710,2000
1460,730,20,720,2000
1461,720,20,710,2000
1462,720,20,700,2000
1463,730,10,700,2000
1464,730,20,700,2000
1465,730,20,710,2000
1466,720,10,700,2000
1467,730,0,740,2000
1468,730,-20,830,2000
1469,580,-50,1070,2000
1470,400,-10,1310,2000
1471,760,0,1710,2000
1472,740,220,1600,2000
1473,970,470,1480,2000
1474,780,670,1070,2000
1475,810,780,580,2000
1476,790,900,490,2000
1477,750,990,-20,2000
1478,790,910,-140,2000
1479,960,730,-280,2000
1480,640,570,-330,2000
1481,720,370,-450,2000
1482,730,260,-560,2000
1483,740,-70,-910,2000
1484,890,-230,-1130,2000
1485,1070,-370,-1230,2000
1486,1140,-580,-1210,2000
1487,1180,-690,-1120,2000
1488,1240,-720,-1020,2000
1489,1230,-610,-1010,2000
1490,1190,-430,-1000,2000
1491,1090,-290,-960,2000
1492,960,-190,-940,2000
1493,900,-60,-880,2000
1494,860,90,-850,2000
1495,860,260,-820,2000
1496,860,400,-670,2000
1497,790,570,-610,2000
1498,820,760,-440,2000
1499,790,970,-330,2000
1500,900,1180,50,2000
1501,780,1290,230,2000
1502,960,1300,710,2000
1503,800,1110,790,2000
1504,860,880,1000,2000
1505,940,580,1020,2000
1506,690,410,970,2000
1507,820,150,980,2000
1508,890,-80,850,2000
1509,790,-120,720,2000
1510,930,-80,670,2000
1511,680,-30,550,2000
1512,850,20,480,2000
1513,730,60,510,2000
1514,850,80,560,2000
1515,870,70,540,2000
1516,790,80,480,2000
1517,940,50,540,2000
1518,830,70,490,2000
1519,890,80,530,2000
1520,850,70,490,2000
1521,870,70,510,2000
1522,880,80,490,2000
1523,810,80,510,2000
1524,860,90,520,2000
1525,780,80,550,2000
1526,850,40,530,2000
1527,850,110,570,2000
1528,780,50,570,2000
1529,810,100,600,2000
1530,820,100,580,2000
1531,850,50,550,2000
1532,790,90,500,2000
1533,780,80,560,2000
1534,820,50,590,2000
1535,840,70,610,2000
1536,770,80,630,2000
1537,820,80,580,2000
1538,860,70,530,2000
1539,830,80,540,2000
1540,820,60,560,2000
1541,790,80,560,2000
1542,810,50,560,2000
1543,850,40,570,2000
1544,790,70,570,2000
1545,840,50,560,2000
1546,810,60,560,2000
1547,810,60,570,2000
1548,830,50,570,2000
1549,820,60,580,2000
1550,830,60,570,0
1551,830,50,560,0
1552,840,40,560,0
1553,820,50,560,0
1554,840,50,570,0
1555,840,50,560,0
1556,830,50,560,0
1557,820,50,550,0
1558,830,50,550,0
1559,820,50,550,0
1560,830,60,550,0
1561,840,50,570,0
1562,830,30,570,0
1563,830,40,590,0
1564,800,50,570,0
1565,820,50,530,0
1566,840,70,510,0
1567,850,60,510,0
1568,830,60,510,0
1569,870,50,510,0
1570,870,50,530,0
1571,850,50,530,0
1572,850,60,530,0
1573,850,60,530,0
1574,850,60,540,0
1575,850,60,530,0
1576,850,60,540,0
1577,850,70,530,0
1578,850,70,520,0
1579,850,60,520,0
1580,850,60,520,0
1581,840,70,530,0
1582,850,60,540,0
1583,840,60,530,0
1584,840,60,530,0
1585,850,50,540,0
1586,840,50,530,0
1587,850,50,540,0
1588,850,60,560,0
1589,840,50,540,0
1590,840,50,530,0
1591,840,50,530,0
1592,840,50,540,0
1593,830,50,540,0
1594,850,50,540,0
1595,840,50,540,0
1596,840,50,550,0
1597,840,50,550,0
1598,840,50,550,0
1599,850,50,540,0
1600,840,50,540,0
1601,840,50,530,0
1602,840,50,540,0
1603,840,50,530,0
1604,850,50,550,0
1605,850,50,550,0
1606,840,50,550,0
1607,840,50,540,0
1608,840,50,540,0
1609,850,50,540,0
1610,830,50,530,0
1611,840,50,540,0
1612,850,50,540,0
1613,840,50,540,0
1614,840,50,540,0
1615,840,50,540,0
1616,840,50,540,0
1617,840,50,540,0
1618,840,50,540,0
1619,850,50,550,0
1620,840,50,550,0
1621,840,50,540,0
1622,830,50,540,0
1623,840,40,540,0
1624,830,50,540,0
1625,830,50,540,0
1626,840,50,550,0
1627,840,40,550,0
1628,830,40,550,0
1629,830,40,560,0
1630,840,40,560,0
1631,830,50,560,0
1632,830,40,550,0
1633,830,40,550,0
1634,830,50,550,0
1635,840,40,560,0
1636,830,50,550,0
1637,830,40,550,0
1638,830,50,560,0
1639,840,50,570,0
1640,840,40,560,0
1641,830,40,560,0
1642,820,50,580,0
1643,840,20,550,0
1644,810,50,560,0
1645,830,60,570,0
1646,850,50,560,0
1647,790,40,600,0
1648,820,30,580,0
1649,810,40,600,0
1650,800,40,580,0
1651,770,70,570,0
1652,810,40,600,0
1653,800,30,610,0
1654,790,40,610,0
1655,770,30,610,0
1656,800,50,590,0
1657,840,40,580,0
1658,790,20,580,0
1659,800,40,580,0
1660,800,30,590,0
1661,790,40,590,0
1662,800,40,590,0
1663,820,40,590,0
1664,800,40,590,0
1665,810,50,590,0
1666,790,50,590,0
1667,810,50,590,0
1668,800,50,590,0
1669,800,50,590,0
1670,790,40,590,0
1671,800,40,590,0
1672,800,40,590,0
1673,800,40,590,0
1674,810,50,590,0
1675,790,40,590,2000
1676,800,50,590,2000
1677,810,50,590,2000
1678,800,40,590,2000
1679,800,40,590,2000
1680,790,40,590,2000
1681,800,40,590,2000
1682,810,40,590,2000
1683,810,40,590,2000
1684,800,50,590,2000
1685,800,40,590,2000
1686,800,50,590,2000
1687,790,40,590,2000
1688,810,50,590,2000
1689,790,50,590,2000
1690,800,50,600,2000
1691,820,40,600,2000
1692,840,50,670,2000
1693,780,70,750,2000
1694,700,50,810,2000
1695,620,100,1010,2000
1696,950,110,1480,2000
1697,750,80,1720,2000
1698,1050,-50,1490,2000
1699,410,-50,1060,2000
1700,660,240,200,2000
1701,700,560,-210,2000
1702,1220,820,-460,2000
1703,900,620,-350,2000
1704,920,450,-390,2000
1705,850,590,-460,2000
1706,1040,870,-760,2000
1707,940,1270,-800,2000
1708,940,830,100,2000
1709,1000,950,1770,2000
1710,1320,780,2660,2000
1711,1370,640,2380,2000
1712,1290,390,1420,2000
1713,1200,160,1120,2000
1714,1370,350,1480,2000
1715,1020,480,940,2000
1716,1190,840,760,2000
1717,930,1250,-460,2000
1718,620,1350,-870,2000
1719,1330,420,-610,2000
1720,470,260,-590,2000
1721,860,630,-410,2000
1722,850,980,-640,2000
1723,1160,720,-290,2000
1724,910,550,390,2000
1725,690,280,1490,2000
1726,780,390,1750,2000
1727,1040,160,1350,2000
1728,1100,110,630,2000
1729,1030,-20,470,2000
1730,1070,-10,390,2000
1731,1030,10,330,2000
1732,930,10,270,2000
1733,1020,0,240,2000
1734,940,-10,200,2000
1735,980,30,240,2000
1736,940,40,260,2000
1737,970,40,250,2000
1738,1010,10,240,2000
1739,950,10,240,2000
1740,980,40,280,2000
1741,950,50,270,2000
1742,970,40,240,2000
1743,960,40,220,2000
1744,950,30,250,2000
1745,960,20,250,2000
1746,960,20,270,2000
1747,950,30,290,2000
1748,960,20,300,2000
1749,960,40,290,2000
1750,950,60,290,2000
1751,940,40,280,2000
1752,960,50,330,2000
1753,950,30,310,2000
1754,940,40,330,2000
1755,960,40,350,2000
1756,930,30,340,2000
1757,950,40,340,2000
1758,940,40,340,2000
1759,940,40,350,2000
1760,950,40,340,2000
1761,960,40,340,2000
1762,930,40,350,2000
1763,930,40,350,2000
1764,950,40,350,2000
1765,950,40,340,2000
1766,940,40,340,2000
1767,950,40,350,2000
1768,930,40,330,2000
1769,950,40,360,2000
1770,940,40,350,2000
1771,930,40,350,2000
1772,950,40,360,2000
1773,930,40,350,2000
1774,940,40,370,2000
1775,930,30,330,2000
1776,940,70,360,2000
1777,930,30,350,2000
1778,940,30,360,2000
1779,940,40,390,2000
1780,950,50,440,2000
1781,940,30,320,2000
1782,920,40,220,2000
1783,920,60,360,2000
1784,950,0,350,2000
1785,910,60,390,2000
1786,930,50,440,2000
1787,950,50,430,2000
1788,970,40,290,2000
1789,950,50,270,2000
1790,930,40,340,2000
1791,950,50,340,2000
1792,940,40,300,2000
1793,960,30,310,2000
1794,950,20,330,2000
1795,940,30,350,2000
1796,940,30,340,2000
1797,950,40,310,2000
1798,950,10,310,2000
1799,950,30,320,2000
1800,940,40,320,0
1801,950,30,330,0
1802,950,40,330,0
1803,950,30,320,0
1804,950,30,330,0
1805,950,30,320,0
1806,950,40,330,0
1807,940,20,320,0
1808,950,30,330,0
1809,950,30,340,0
1810,950,20,340,0
1811,940,30,330,0
1812,950,30,330,0
1813,950,30,330,0
1814,950,30,320,0
1815,940,20,330,0
1816,940,20,330,0
1817,950,20,330,0
1818,960,20,340,0
1819,950,30,330,0
1820,950,20,330,0
1821,950,20,320,0
1822,940,30,330,0
1823,950,30,330,0
1824,940,20,330,0
1825,950,30,340,0
1826,950,20,350,0
1827,950,20,350,0
1828,950,20,350,0
1829,940,30,350,0
1830,940,20,340,0
1831,940,20,350,0
1832,940,30,360,0
1833,940,30,350,0
1834,940,30,350,0
1835,940,20,360,0
1836,950,20,360,0
1837,940,30,360,0
1838,940,30,350,0
1839,940,30,360,0
1840,940,20,350,0
1841,930,30,350,0
1842,950,30,360,0
1843,930,30,360,0
1844,940,30,360,0
1845,940,30,360,0
1846,930,30,360,0
1847,940,30,350,0
1848,930,30,360,0
1849,940,20,360,0
1850,940,20,360,0
1851,950,20,360,0
1852,940,30,360,0
1853,940,30,360,0
1854,930,30,360,0
1855,940,30,360,0
1856,940,20,350,0
1857,940,30,360,0
1858,940,20,350,0
1859,940,30,360,0
1860,940,30,360,0
1861,930,20,360,0
1862,940,20,360,0
1863,950,20,360,0
1864,940,30,350,0
1865,930,30,350,0
1866,940,30,360,0
1867,940,20,360,0
1868,930,30,360,0
1869,940,30,360,0
1870,950,30,360,0
1871,930,30,350,0
1872,940,20,350,0
1873,940,20,350,0
1874,940,20,360,0
1875,930,20,360,0
1876,940,20,360,0
1877,950,20,360,0
1878,940,20,360,0
1879,940,20,360,0
1880,940,20,360,0
1881,950,20,360,0
1882,930,20,350,0
1883,930,20,350,0
1884,940,20,360,0
1885,940,20,360,0
1886,940,20,360,0
1887,950,20,360,0
1888,930,20,360,0
1889,940,20,360,0
1890,940,20,360,0
1891,930,20,360,0
1892,940,20,360,0
1893,940,20,360,0
1894,950,20,360,0
1895,940,20,370,0
1896,930,20,360,0
1897,940,20,360,0
1898,940,30,370,0
1899,940,20,360,0
1900,930,30,360,0
1901,940,20,370,0
1902,940,10,360,0
1903,940,40,360,0
1904,930,20,370,0
1905,940,20,370,0
1906,930,20,360,0
1907,930,30,370,0
1908,930,20,370,0
1909,940,40,360,0
1910,930,30,360,0
1911,930,20,370,0
1912,940,30,370,0
1913,940,30,370,0
1914,920,30,390,0
1915,930,30,370,0
1916,920,30,390,0
1917,930,30,370,0
1918,940,30,390,0
1919,910,20,390,0
1920,940,30,370,0
1921,940,50,420,0
1922,910,30,410,0
1923,920,20,390,0
1924,920,30,390,0
1925,950,50,410,0
1926,920,30,370,0
1927,920,30,360,0
1928,920,40,360,0
1929,940,30,380,0
1930,930,20,370,0
1931,930,20,380,0
1932,880,110,360,0
1933,960,0,380,0
1934,930,10,360,0
1935,930,30,370,0
1936,930,30,370,0
1937,930,30,370,0
1938,930,30,370,0
1939,940,30,370,0
1940,930,30,370,0
1941,940,20,370,0
1942,930,30,370,0
1943,930,30,370,0
1944,930,20,370,0
1945,930,30,370,0
1946,930,30,370,0
1947,940,20,370,0
1948,930,30,370,0
1949,930,30,370,0
1950,940,20,370,2000
1951,930,30,370,2000
1952,930,20,370,2000
1953,930,20,370,2000
1954,930,20,370,2000
1955,930,20,380,2000
1956,930,20,370,2000
1957,930,30,370,2000
1958,930,20,370,2000
1959,930,20,370,2000
1960,930,20,370,2000
1961,930,30,370,2000
1962,940,20,370,2000
1963,940,20,370,2000
1964,930,20,380,2000
1965,930,30,370,2000
1966,930,30,370,2000
1967,930,30,360,2000
1968,930,30,370,2000
1969,930,30,370,2000
1970,930,20,370,2000
1971,930,30,370,2000
1972,940,30,370,2000
1973,940,30,370,2000
1974,930,30,370,2000
1975,930,30,370,2000
1976,920,30,360,2000
1977,930,30,370,2000
1978,930,40,370,2000
1979,950,30,380,2000
1980,940,40,400,2000
1981,940,40,400,2000
1982,900,50,400,2000
1983,920,60,410,2000
1984,920,70,450,2000
1985,950,90,620,2000
1986,1070,100,1010,2000
1987,1180,70,1270,2000
1988,1270,90,1600,2000
1989,1530,80,1570,2000
1990,1660,30,1370,2000
1991,1080,100,1020,2000
1992,720,220,820,2000
1993,600,350,670,2000
1994,360,460,610,2000
1995,-90,490,560,2000
1996,-200,370,490,2000
1997,-340,230,310,2000
1998,-360,80,130,2000
1999,-210,-90,-50,2000
2000,-100,-130,-340,2000
2001,320,-450,-600,2000
2002,420,-630,-810,2000
2003,840,-740,-860,2000
2004,1070,-990,-790,2000
2005,1210,-1000,-450,2000
2006,1270,-930,230,2000
2007,1310,-760,940,2000
2008,1210,-420,1410,2000
2009,1070,10,1560,2000
2010,680,270,1700,2000
2011,330,580,1980,2000
2012,-20,750,2060,2000
2013,-230,650,1790,2000
2014,0,500,1460,2000
2015,270,410,1070,2000
2016,630,340,780,2000
2017,730,220,430,2000
2018,840,110,160,2000
2019,920,-100,-100,2000
2020,1150,-300,-250,2000
2021,1330,-400,-300,2000
2022,1380,-580,0,2000
2023,1310,-650,300,2000
2024,1260,-560,510,2000
2025,1240,-550,730,2000
2026,1050,-330,750,2000
2027,1210,-50,910,2000
2028,950,190,830,2000
2029,910,350,800,2000
2030,970,520,710,2000
2031,790,610,600,2000
2032,920,580,510,2000
2033,870,490,460,2000
2034,790,370,470,2000
2035,760,220,470,2000
2036,850,60,470,2000
2037,870,20,490,2000
2038,890,-10,490,2000
2039,960,-10,500,2000
2040,870,0,480,2000
2041,920,0,480,2000
2042,870,0,460,2000
2043,880,10,440,2000
2044,860,30,440,2000
2045,900,10,450,2000
2046,900,20,450,2000
2047,910,10,450,2000
2048,920,30,450,2000
2049,920,30,450,2000
2050,860,60,430,2000
2051,920,20,440,2000
2052,900,20,440,2000
2053,900,30,410,2000
2054,910,10,430,2000
2055,930,20,460,2000
2056,920,0,450,2000
2057,880,40,460,2000
2058,870,50,460,2000
2059,900,20,480,2000
2060,830,40,500,2000
2061,880,20,470,2000
2062,880,40,500,2000
2063,870,40,500,2000
2064,890,20,500,2000
2065,900,-30,410,2000
2066,850,70,470,2000
2067,890,-10,440,2000
2068,880,80,500,2000
2069,850,60,500,2000
2070,900,40,530,2000
2071,870,20,500,2000
2072,870,50,470,2000
2073,870,70,430,2000
2074,880,50,450,2000
2075,870,30,470,0
2076,880,30,470,0
2077,900,50,480,0
2078,880,80,470,0
2079,890,20,480,0
2080,860,30,470,0
2081,860,40,460,0
2082,860,20,460,0
2083,860,30,460,0
2084,860,40,470,0
2085,870,40,480,0
2086,880,30,480,0
2087,880,20,480,0
2088,870,30,470,0
2089,870,30,470,0
2090,870,40,480,0
2091,870,40,470,0
2092,870,40,480,0
2093,870,30,470,0
2094,870,40,470,0
2095,870,40,470,0
2096,870,30,470,0
2097,870,30,480,0
2098,880,30,470,0
2099,870,30,470,0
2100,870,30,480,0
2101,870,30,470,0
2102,870,40,470,0
2103,870,40,470,0
2104,870,30,470,0
2105,870,40,470,0
2106,880,40,470,0
2107,870,40,470,0
2108,880,30,470,0
2109,880,30,470,0
2110,870,30,470,0
2111,880,30,470,0
2112,870,40,470,0
2113,870,40,470,0
2114,880,30,470,0
2115,870,30,470,0
2116,870,30,470,0
2117,880,30,470,0
2118,880,30,470,0
2119,870,30,470,0
2120,870,30,470,0
2121,880,30,470,0
2122,870,30,470,0
2123,880,30,470,0
2124,870,30,470,0
2125,870,30,470,0
2126,880,30,470,0
2127,870,30,470,0
2128,870,40,470,0
2129,870,30,470,0
2130,870,30,470,0
2131,870,30,470,0
2132,870,30,470,0
2133,870,30,470,0
2134,870,30,470,0
2135,870,30,470,0
2136,880,30,470,0
2137,880,30,470,0
2138,870,30,470,0
2139,870,30,470,0
2140,880,30,470,0
2141,870,30,470,0
2142,880,30,470,0
2143,870,40,470,0
2144,870,30,470,0
2145,870,30,470,0
2146,870,30,470,0
2147,870,30,470,0
2148,880,30,470,0
2149,880,30,470,0
2150,870,30,470,0
2151,870,30,470,0
2152,870,40,470,0
2153,870,30,470,0
2154,870,30,470,0
2155,870,30,470,0
2156,870,30,470,0
2157,870,30,470,0
2158,880,30,470,0
2159,880,30,470,0
2160,870,30,470,0
2161,870,20,470,0
2162,870,30,470,0
2163,870,30,470,0
2164,880,30,470,0
2165,880,30,470,0
2166,870,30,470,0
2167,880,30,470,0
2168,880,30,470,0
2169,880,30,470,0
2170,870,30,470,0
2171,880,20,470,0
2172,870,20,470,0
2173,880,30,470,0
2174,880,30,470,0
2175,880,30,470,0
2176,870,30,470,0
2177,880,30,470,0
2178,880,20,470,0
2179,880,20,470,0
2180,880,30,470,0
2181,870,20,470,0
2182,870,20,470,0
2183,880,30,470,0
2184,880,30,470,0
2185,870,20,470,0
2186,880,30,470,0
2187,890,30,470,0
2188,880,20,470,0
2189,880,30,470,0
2190,880,30,470,0
2191,880,30,470,0
2192,880,30,470,0
2193,880,20,470,0
2194,890,30,470,0
2195,900,20,470,0
2196,890,30,480,0
2197,870,20,480,0
2198,860,10,470,0
2199,890,40,470,0
2200,850,40,470,0
2201,920,30,470,0
2202,880,30,480,0
2203,860,30,470,0
2204,880,30,470,0
2205,860,40,480,0
2206,860,40,500,0
2207,850,30,520,0
2208,870,40,490,0
2209,860,20,480,0
2210,850,10,480,0
2211,880,30,480,0
2212,860,30,490,0
2213,860,30,480,0
2214,860,40,480,0
2215,860,40,480,0
2216,860,40,480,0
2217,870,50,480,0
2218,860,40,480,0
2219,860,40,480,0
2220,870,40,480,0
2221,860,40,480,0
2222,870,40,480,0
2223,860,30,480,0
2224,860,40,480,0
2225,860,40,480,2000
2226,870,40,480,2000
2227,860,40,480,2000
2228,860,40,480,2000
2229,860,40,480,2000
2230,860,40,480,2000
2231,860,40,480,2000
2232,860,30,480,2000
2233,860,40,480,2000
2234,870,30,480,2000
2235,860,40,480,2000
2236,860,40,480,2000
2237,860,30,480,2000
2238,860,40,480,2000
2239,860,40,480,2000
2240,860,40,480,2000
2241,870,30,480,2000
2242,860,40,480,2000
2243,860,40,480,2000
2244,860,40,480,2000
2245,870,40,480,2000
2246,860,50,500,2000
2247,890,40,510,2000
2248,820,70,520,2000
2249,840,60,520,2000
2250,840,50,540,2000
2251,900,50,640,2000
2252,920,100,870,2000
2253,900,200,1370,2000
2254,1430,310,2000,2000
2255,1430,410,2060,2000
2256,1520,520,1730,2000
2257,1810,480,1260,2000
2258,1310,500,890,2000
2259,580,560,390,2000
2260,280,710,-20,2000
2261,60,460,-470,2000
2262,-150,140,-790,2000
2263,-130,0,-960,2000
2264,-110,70,-930,2000
2265,-20,370,-780,2000
2266,120,460,-420,2000
2267,450,580,810,2000
2268,460,520,1320,2000
2269,1280,810,2170,2000
2270,770,860,2320,2000
2271,940,1070,2450,2000
2272,480,940,2420,2000
2273,210,840,2180,2000
2274,80,940,2300,2000
2275,240,1220,2380,2000
2276,1060,1110,2380,2000
2277,1130,930,1620,2000
2278,700,1210,1150,2000
2279,770,1230,200,2000
2280,160,860,-340,2000
2281,80,330,-620,2000
2282,-140,-170,-680,2000
2283,-390,-490,-610,2000
2284,-530,-460,-550,2000
2285,-420,-310,-430,2000
2286,-320,-130,-360,2000
2287,-10,90,-290,2000
2288,360,250,-240,2000
2289,560,0,260,2000
2290,660,10,1080,2000
2291,860,10,1560,2000
2292,750,200,2070,2000
2293,840,230,1960,2000
2294,890,550,1970,2000
2295,540,480,1830,2000
2296,430,420,1440,2000
2297,690,270,1050,2000
2298,490,210,920,2000
2299,510,160,820,2000
2300,630,160,810,2000
2301,510,110,740,2000
2302,700,90,770,2000
2303,630,90,760,2000
2304,720,80,820,2000
2305,700,50,760,2000
2306,680,80,750,2000
2307,720,40,720,2000
2308,680,80,670,2000
2309,730,70,710,2000
2310,720,70,680,2000
2311,740,90,690,2000
2312,740,70,690,2000
2313,760,90,700,2000
2314,730,80,700,2000
2315,750,70,690,2000
2316,730,80,720,2000
2317,690,80,690,2000
2318,700,90,680,2000
2319,730,100,680,2000
2320,730,90,710,2000
2321,720,110,720,2000
2322,760,50,700,2000
2323,740,50,620,2000
2324,730,80,630,2000
2325,740,80,650,2000
2326,750,70,700,2000
2327,740,110,710,2000
2328,760,80,690,2000
2329,820,60,610,2000
2330,750,70,600,2000
2331,730,70,620,2000
2332,790,90,610,2000
2333,780,40,600,2000
2334,780,70,620,2000
2335,790,80,620,2000
2336,760,70,610,2000
2337,780,60,610,2000
2338,790,80,620,2000
2339,770,90,610,2000
2340,790,60,610,2000
2341,800,60,610,2000
2342,770,60,610,2000
2343,770,60,620,2000
2344,780,50,600,2000
2345,780,50,600,2000
2346,770,50,600,2000
2347,770,50,600,2000
2348,770,50,600,2000
2349,780,60,620,2000
2350,770,60,620,0
2351,780,60,610,0
2352,770,60,620,0
2353,770,60,620,0
2354,780,60,610,0
2355,770,50,610,0
2356,770,50,620,0
2357,770,50,610,0
2358,770,50,620,0
2359,770,50,610,0
2360,770,50,620,0
2361,770,60,620,0
2362,780,50,620,0
2363,770,50,620,0
2364,770,50,620,0
2365,770,40,630,0
2366,760,50,610,0
2367,780,50,630,0
2368,770,60,630,0
2369,770,50,610,0
2370,780,40,620,0
2371,770,60,620,0
2372,770,50,620,0
2373,770,50,620,0
2374,770,50,620,0
2375,770,40,620,0
2376,780,50,610,0
2377,770,50,610,0
2378,770,50,620,0
2379,770,50,620,0
2380,770,50,620,0
2381,780,50,620,0
2382,770,50,610,0
2383,770,60,610,0
2384,770,50,610,0
2385,770,50,610,0
2386,780,50,620,0
2387,770,50,620,0
2388,770,50,620,0
2389,770,60,610,0
2390,770,60,610,0
2391,770,60,610,0
2392,760,60,620,0
2393,770,50,630,0
2394,760,50,630,0
2395,760,50,640,0
2396,760,50,630,0
2397,770,60,650,0
2398,760,40,640,0
2399,760,60,650,0
2400,760,40,660,0
2401,730,60,670,0
2402,750,50,680,0
2403,730,40,680,0
2404,730,60,690,0
2405,740,50,670,0
2406,720,60,630,0
2407,730,70,720,0
2408,750,40,730,0
2409,720,50,680,0
2410,730,50,720,0
2411,770,60,700,0
2412,740,50,680,0
2413,730,60,670,0
2414,730,50,670,0
2415,730,90,660,0
2416,720,40,650,0
2417,740,30,660,0
2418,730,50,660,0
2419,730,60,680,0
2420,740,50,680,0
2421,730,50,690,0
2422,730,50,680,0
2423,740,60,680,0
2424,740,50,670,0
2425,730,60,670,2000
2426,740,50,670,2000
2427,730,50,670,2000
2428,730,50,680,2000
2429,740,50,670,2000
2430,740,50,670,2000
2431,730,50,670,2000
2432,740,50,670,2000
2433,740,50,670,2000
2434,740,50,670,2000
2435,740,50,670,2000
2436,740,60,670,2000
2437,740,40,670,2000
2438,740,50,680,2000
2439,740,50,670,2000
2440,740,50,660,2000
2441,740,50,650,2000
2442,740,50,660,2000
2443,740,50,660,2000
2444,740,50,650,2000
2445,750,50,660,2000
2446,740,50,660,2000
2447,740,50,650,2000
2448,750,50,660,2000
2449,750,60,680,2000
2450,760,60,700,2000
2451,730,90,690,2000
2452,730,90,670,2000
2453,740,90,670,2000
2454,770,70,680,2000
2455,780,60,680,2000
2456,750,70,660,2000
2457,720,100,650,2000
2458,730,120,730,2000
2459,850,150,920,2000
2460,740,260,1550,2000
2461,1170,470,2180,2000
2462,1290,450,2440,2000
2463,1440,490,2060,2000
2464,1640,270,1720,2000
2465,1330,240,1210,2000
2466,870,620,500,2000
2467,350,750,-390,2000
2468,240,560,-760,2000
2469,20,200,-920,2000
2470,-290,-230,-760,2000
2471,-470,-270,-640,2000
2472,-490,-220,-700,2000
2473,-80,-20,-610,2000
2474,-50,250,-710,2000
2475,770,500,170,2000
2476,420,380,1210,2000
2477,1010,240,2200,2000
2478,530,360,2390,2000
2479,910,220,2490,2000
2480,480,370,2180,2000
2481,410,330,1890,2000
2482,220,230,1340,2000
2483,350,190,1030,2000
2484,450,110,880,2000
2485,460,110,860,2000
2486,490,80,940,2000
2487,550,50,1000,2000
2488,640,30,980,2000
2489,680,-50,840,2000
2490,660,-50,730,2000
2491,550,-70,580,2000
2492,560,-10,610,2000
2493,530,0,710,2000
2494,470,10,820,2000
2495,530,30,960,2000
2496,460,140,1200,2000
2497,340,530,1610,2000
2498,640,900,1720,2000
2499,640,1240,1520,2000
2500,1260,1460,1200,2000
2501,1230,1600,580,2000
2502,1310,1470,-120,2000
2503,680,1310,-750,2000
2504,590,1030,-1530,2000
2505,170,910,-1860,2000
2506,240,520,-2020,2000
2507,400,170,-1890,2000
2508,390,-370,-1790,2000
2509,500,-500,-1770,2000
2510,650,-370,-1840,2000
2511,710,-80,-1890,2000
2512,910,300,-1790,2000
2513,960,730,-1550,2000
2514,1000,1270,-1280,2000
2515,880,1850,-900,2000
2516,1090,2100,190,2000
2517,360,1920,560,2000
2518,1140,1510,1080,2000
2519,600,1320,960,2000
2520,960,820,920,2000
2521,940,490,700,2000
2522,880,120,620,2000
2523,950,140,560,2000
2524,810,110,420,2000
2525,910,110,270,2000
2526,880,70,280,2000
2527,970,30,350,2000
2528,940,100,390,2000
2529,860,110,460,2000
2530,860,160,420,2000
2531,1000,110,400,2000
2532,950,90,350,2000
2533,950,110,370,2000
2534,880,110,370,2000
2535,910,120,360,2000
2536,930,100,350,2000
2537,940,110,360,2000
2538,940,110,400,2000
2539,890,110,370,2000
2540,910,110,430,2000
2541,870,90,400,2000
2542,940,110,430,2000
2543,950,100,450,2000
2544,900,120,440,2000
2545,890,80,370,2000
2546,910,110,340,2000
2547,900,110,430,2000
2548,910,100,460,2000
2549,870,100,360,2000
2550,890,160,350,2000
2551,900,120,470,2000
2552,950,30,380,2000
2553,930,140,380,2000
2554,890,140,470,2000
2555,870,140,450,2000
2556,960,60,360,2000
2557,950,120,350,2000
2558,910,110,370,2000
2559,930,120,370,2000
2560,930,110,360,2000
2561,920,110,360,2000
2562,950,110,370,2000
2563,930,110,370,2000
2564,920,110,360,2000
2565,920,110,360,2000
2566,930,120,360,2000
2567,930,110,360,2000
2568,930,110,370,2000
2569,920,110,360,2000
2570,920,110,360,2000
2571,930,110,360,2000
2572,920,110,370,2000
2573,940,110,360,2000
2574,930,110,370,2000
2575,930,110,370,2000
2576,930,110,370,2000
2577,930,110,360,2000
2578,920,110,360,2000
2579,930,110,360,2000
2580,920,110,360,2000
2581,930,110,360,2000
2582,920,110,360,2000
2583,930,110,360,2000
2584,940,110,370,2000
2585,930,110,360,2000
2586,930,110,370,2000
2587,920,110,360,2000
2588,930,110,350,2000
2589,930,110,360,2000
2590,930,110,360,2000
2591,930,110,370,2000
2592,930,110,360,2000
2593,930,110,370,2000
2594,920,110,360,2000
2595,930,110,360,2000
2596,920,110,360,2000
2597,920,110,360,2000
2598,940,110,360,2000
2599,920,110,360,2000
2600,930,110,370,2000
2601,930,110,360,2000
2602,920,110,360,2000
2603,930,110,360,2000
2604,920,110,370,2000
2605,920,110,360,2000
2606,930,110,370,2000
2607,930,110,360,2000
2608,920,110,360,2000
2609,930,110,360,2000
2610,930,110,370,2000
2611,920,110,360,2000
2612,920,110,370,2000
2613,930,110,370,2000
2614,930,110,360,2000
2615,920,110,370,2000
2616,920,110,370,2000
2617,930,100,370,2000
2618,920,100,370,2000
2619,930,110,370,2000
2620,930,100,370,2000
2621,930,100,370,2000
2622,920,110,370,2000
2623,930,110,360,2000
2624,930,110,360,2000
2625,910,110,360,2000
2626,920,110,370,2000
2627,930,110,360,2000
2628,930,110,370,2000
2629,930,100,360,2000
2630,920,110,360,2000
2631,930,110,360,2000
2632,930,110,360,2000
2633,930,110,360,2000
2634,930,110,360,2000
2635,930,110,360,2000
2636,930,110,360,2000
2637,930,110,360,2000
2638,930,110,360,2000
2639,930,110,360,2000
2640,920,110,360,2000
2641,930,110,360,2000
2642,930,100,360,2000
2643,930,110,360,2000
2644,930,110,360,2000
2645,920,100,360,2000
2646,930,100,360,2000
2647,940,110,360,2000
2648,930,100,360,2000
2649,930,100,360,2000
2650,930,110,360,2000
2651,930,110,360,2000
2652,930,100,360,2000
2653,920,110,360,2000
2654,930,110,360,2000
2655,930,110,360,2000
2656,930,110,370,2000
2657,930,100,360,2000
2658,930,110,360,2000
2659,930,90,390,2000
2660,920,110,380,2000
2661,910,90,390,2000
2662,900,120,420,2000
2663,920,110,400,2000
2664,910,100,420,2000
2665,890,120,440,2000
2666,880,90,420,2000
2667,910,80,360,2000
2668,900,130,390,2000
2669,910,100,460,2000
2670,890,130,440,2000
2671,890,90,430,2000
2672,920,110,390,2000
2673,930,110,370,2000
2674,880,100,370,2000
2675,950,90,370,0
2676,920,110,380,0
2677,920,120,450,0
2678,880,130,470,0
2679,860,200,480,0
2680,860,170,490,0
2681,900,100,430,0
2682,870,40,400,0
2683,910,-10,350,0
2684,940,-30,330,0
2685,880,-20,360,0
2686,960,70,420,0
2687,930,190,460,0
2688,870,220,470,0
2689,920,180,460,0
2690,900,140,430,0
2691,890,90,420,0
2692,900,90,410,0
2693,880,80,430,0
2694,910,50,440,0
2695,920,50,450,0
2696,900,50,450,0
2697,910,40,460,0
2698,880,40,450,0
2699,870,40,450,0
2700,880,30,440,0
2701,880,10,440,0
2702,880,-10,450,0
2703,880,-30,450,0
2704,880,-40,460,0
2705,910,-60,460,0
2706,870,-50,460,0
2707,890,-60,470,0
2708,880,-40,460,0
2709,900,-20,460,0
2710,870,-10,460,0
2711,870,-10,460,0
2712,870,-30,460,0
2713,890,-50,450,0
2714,910,-60,440,0
2715,920,-30,430,0
2716,930,-10,420,0
2717,930,0,400,0
2718,960,-10,350,0
2719,930,10,380,0
2720,940,10,460,0
2721,910,0,430,0
2722,920,10,420,0
2723,950,40,380,0
2724,930,30,400,0
2725,920,30,400,0
2726,930,30,410,0
2727,930,40,370,0
2728,900,30,380,0
2729,910,10,390,0
2730,930,20,380,0
2731,940,30,390,0
2732,940,40,390,0
2733,920,50,380,0
2734,930,50,370,0
2735,920,50,370,0
2736,940,40,370,0
2737,930,40,370,0
2738,930,50,380,0
2739,930,50,380,0
2740,920,50,390,0
2741,930,40,390,0
2742,930,40,390,0
2743,930,40,380,0
2744,930,40,380,0
2745,920,30,380,0
2746,920,30,380,0
2747,930,30,380,0
2748,930,40,380,0
2749,920,30,390,0
2750,930,40,390,0
2751,930,30,380,0
2752,930,30,390,0
2753,920,20,380,0
2754,920,20,380,0
2755,930,10,380,0
2756,920,10,380,0
2757,930,20,380,0
2758,930,30,380,0
2759,930,40,390,0
2760,930,40,390,0
2761,940,40,390,0
2762,930,40,390,0
2763,920,40,380,0
2764,930,30,370,0
2765,930,30,370,0
2766,920,30,380,0
2767,920,30,380,0
2768,930,30,380,0
2769,940,30,380,0
2770,920,40,380,0
2771,940,40,390,0
2772,960,60,410,0
2773,950,80,420,0
2774,840,80,420,0
2775,880,60,450,0
2776,820,30,470,0
2777,770,0,520,0
2778,770,-40,580,0
2779,770,-90,630,0
2780,720,-120,680,0
2781,720,-130,710,0
2782,760,-140,730,0
2783,720,-140,710,0
2784,730,-120,680,0
2785,730,-120,650,0
2786,760,-120,660,0
2787,770,-90,660,0
2788,760,-70,620,0
2789,760,-20,630,0
2790,770,-10,600,0
2791,770,-10,610,0
2792,790,10,630,0
2793,800,40,680,0
2794,820,-20,730,0
2795,730,40,690,0
2796,740,70,670,0
2797,780,60,620,0
2798,810,90,600,0
2799,800,80,600,0
2800,790,80,600,0
2801,810,80,580,0
2802,830,110,600,0
2803,850,110,630,0
2804,870,60,660,0
2805,620,170,690,0
2806,720,-20,770,0
