sequence,accelx,accely,accelz,event
0,250,0,970,0
1,260,-10,970,0
2,250,-10,970,0
3,260,-10,970,0
4,270,-10,970,0
5,260,-10,970,0
6,260,-10,960,0
7,260,0,970,0
8,260,0,970,0
9,260,-10,970,0
10,260,-10,970,0
11,260,-10,980,0
12,260,-10,970,0
13,260,-10,970,0
14,260,-10,970,0
15,270,-10,970,0
16,270,-10,960,0
17,270,-10,960,0
18,260,0,960,0
19,270,0,970,0
20,260,0,970,0
21,260,-10,970,0
22,270,-10,970,0
23,270,-10,980,0
24,270,-10,970,0
25,260,0,970,0
26,260,-10,960,0
27,270,-10,960,0
28,270,0,970,0
29,270,0,970,0
30,270,0,970,0
31,260,0,970,0
32,260,0,970,0
33,260,0,970,0
34,260,-10,970,0
35,270,0,970,0
36,260,-10,970,0
37,260,0,970,0
38,260,0,970,0
39,250,0,970,0
40,250,0,970,0
41,260,0,970,0
42,260,0,970,0
43,250,0,970,0
44,260,-10,980,0
45,260,0,980,0
46,240,0,970,0
47,240,-10,960,0
48,250,-10,960,0
49,250,0,970,0
50,240,-10,960,0
51,240,-10,960,0
52,250,0,970,0
53,250,-10,970,0
54,230,-10,970,0
55,250,-10,970,0
56,240,0,980,0
57,240,0,980,0
58,240,0,980,0
59,240,0,980,0
60,250,0,980,0
61,230,0,970,0
62,230,0,940,0
63,230,0,950,0
64,240,0,970,0
65,240,0,980,0
66,240,0,970,0
67,240,0,970,0
68,230,0,970,0
69,230,0,980,0
70,240,10,980,0
71,240,0,970,0
72,230,0,970,0
73,260,0,970,0
74,230,0,970,0
75,250,0,970,0
76,260,0,970,0
77,260,0,970,0
78,260,0,970,0
79,250,10,970,0
80,250,10,970,0
81,250,0,970,0
82,250,10,970,0
83,260,10,970,0
84,270,0,970,0
85,240,10,970,0
86,270,10,980,0
87,210,0,960,0
88,240,20,960,0
89,260,10,970,0
90,230,10,970,0
91,240,10,990,0
92,200,10,970,0
93,190,10,990,0
94,190,20,980,0
95,250,10,960,0
96,220,20,970,0
97,200,10,1000,0
98,200,20,1010,0
99,200,20,1030,0
100,220,10,1000,0
101,290,10,970,0
102,250,20,950,0
103,280,20,940,0
104,220,0,940,0
105,280,10,950,0
106,260,20,960,0
107,270,20,970,0
108,260,20,970,0
109,270,10,980,0
110,260,10,970,0
111,260,10,970,0
112,270,0,970,0
113,270,10,970,0
114,270,10,960,0
115,270,10,960,0
116,270,10,970,0
117,270,10,970,0
118,260,10,970,0
119,270,10,970,0
120,260,10,970,0
121,270,10,970,0
122,270,10,970,0
123,270,10,970,0
124,270,0,970,0
125,270,10,970,3
126,270,20,960,3
127,270,20,970,3
128,250,30,970,3
129,260,20,970,3
130,260,10,970,3
131,260,20,970,3
132,260,20,970,3
133,270,10,970,3
134,250,20,970,3
135,260,20,970,3
136,270,10,970,3
137,260,10,970,3
138,260,20,970,3
139,260,20,970,3
140,260,10,970,3
141,270,10,970,3
142,260,20,970,3
143,260,20,970,3
144,260,20,970,3
145,280,10,980,3
146,250,30,970,3
147,250,30,960,3
148,260,40,960,3
149,240,40,960,3
150,230,40,970,3
151,180,40,1050,3
152,110,30,1200,3
153,0,60,1460,3
154,-30,130,1620,3
155,220,110,1790,3
156,80,220,1720,3
157,360,160,1690,3
158,430,100,1580,3
159,260,30,1250,3
160,290,20,970,3
161,360,-80,750,3
162,140,-90,430,3
163,40,-240,280,3
164,-20,-280,190,3
165,-260,-340,-20,3
166,-250,-440,-70,3
167,-360,-400,-140,3
168,-290,-420,-50,3
169,-280,-330,40,3
170,-300,-290,110,3
171,-250,-280,280,3
172,-100,-260,420,3
173,90,-270,810,3
174,90,-180,990,3
175,270,-140,1460,3
176,100,0,1530,3
177,280,70,1570,3
178,320,90,1560,3
179,160,100,1460,3
180,240,100,1370,3
181,260,100,1290,3
182,260,90,1200,3
183,340,50,1090,3
184,320,30,1010,3
185,420,30,960,3
186,420,60,940,3
187,450,50,880,3
188,460,40,880,3
189,440,40,920,3
190,460,40,930,3
191,450,60,910,3
192,450,90,910,3
193,510,30,910,3
194,460,40,890,3
195,470,50,920,3
196,430,50,880,3
197,470,50,900,3
198,440,90,910,3
199,440,40,890,3
200,450,70,880,3
201,420,80,950,3
202,430,80,960,3
203,420,110,960,3
204,460,0,930,3
205,450,0,850,3
206,410,120,860,3
207,440,-20,860,3
208,360,50,870,3
209,460,70,970,3
210,380,110,990,3
211,430,0,960,3
212,500,60,910,3
213,450,50,850,3
214,440,50,870,3
215,460,40,880,3
216,460,40,870,3
217,460,70,880,3
218,460,30,900,3
219,460,40,880,3
220,460,50,890,3
221,480,60,890,3
222,460,80,870,3
223,460,70,870,3
224,480,50,890,3
225,460,60,880,0
226,460,60,890,0
227,460,50,880,0
228,460,50,880,0
229,460,60,890,0
230,460,60,900,0
231,460,60,900,0
232,460,60,880,0
233,460,50,880,0
234,460,60,870,0
235,460,60,890,0
236,460,50,900,0
237,460,50,890,0
238,460,50,880,0
239,460,50,890,0
240,460,50,890,0
241,460,50,890,0
242,460,40,890,0
243,460,50,880,0
244,460,50,890,0
245,460,50,890,0
246,460,60,890,0
247,460,60,910,0
248,460,70,890,0
249,470,60,910,0
250,460,50,900,0
251,460,40,890,0
252,460,40,880,0
253,420,70,870,0
254,460,70,900,0
255,470,50,880,0
256,460,50,880,0
257,460,60,890,0
258,460,70,900,0
259,460,50,890,0
260,460,50,880,0
261,460,60,900,0
262,460,60,890,0
263,460,50,890,0
264,460,50,880,0
265,460,60,890,0
266,460,60,890,0
267,460,60,880,0
268,460,60,880,0
269,460,70,880,0
270,460,60,890,0
271,460,50,900,0
272,460,50,900,0
273,460,50,880,0
274,460,50,890,0
275,460,50,890,0
276,460,60,880,0
277,460,60,890,0
278,460,50,890,0
279,460,50,890,0
280,460,50,890,0
281,460,50,900,0
282,460,50,900,0
283,460,50,890,0
284,460,50,890,0
285,460,50,890,0
286,460,60,900,0
287,460,60,900,0
288,460,50,890,0
289,460,50,900,0
290,460,50,890,0
291,460,50,890,0
292,460,50,890,0
293,460,50,890,0
294,460,50,890,0
295,460,50,890,0
296,460,50,890,0
297,460,50,900,0
298,460,60,900,0
299,460,50,890,0
300,460,50,890,0
301,460,50,890,0
302,460,50,890,0
303,460,50,900,0
304,460,50,890,0
305,460,40,900,0
306,460,40,900,0
307,460,40,890,0
308,460,50,890,0
309,460,50,890,0
310,460,50,890,0
311,460,40,890,0
312,460,50,890,0
313,460,50,900,0
314,460,50,890,0
315,460,40,890,0
316,460,40,900,0
317,460,50,890,0
318,460,50,890,0
319,460,50,890,0
320,460,50,890,0
321,460,50,890,0
322,460,40,890,0
323,460,50,890,0
324,460,50,890,0
325,460,50,890,0
326,460,50,890,0
327,460,50,890,0
328,460,50,900,0
329,460,40,900,0
330,460,50,900,0
331,460,50,890,0
332,460,50,890,0
333,460,50,900,0
334,460,50,890,0
335,460,50,890,0
336,460,50,890,0
337,460,50,890,0
338,460,50,900,0
339,460,50,900,0
340,460,50,900,0
341,460,50,890,0
342,460,50,890,0
343,460,50,890,0
344,460,50,890,0
345,460,50,890,0
346,450,40,890,0
347,450,50,880,0
348,470,40,910,0
349,420,70,890,0
350,470,30,890,0
351,430,70,900,0
352,450,40,910,0
353,450,40,900,0
354,400,70,920,0
355,430,50,930,0
356,420,40,900,0
357,420,50,940,0
358,420,70,970,0
359,450,50,950,0
360,470,30,880,0
361,440,70,850,0
362,450,50,880,0
363,440,50,880,0
364,460,50,880,0
365,460,50,890,0
366,460,50,900,0
367,460,70,880,0
368,480,40,910,0
369,460,50,890,0
370,460,50,890,0
371,460,50,880,0
372,460,40,880,0
373,460,40,880,0
374,460,50,880,0
375,460,50,880,3
376,460,50,880,3
377,460,50,890,3
378,460,50,900,3
379,460,50,900,3
380,460,50,890,3
381,460,50,880,3
382,460,50,880,3
383,460,40,880,3
384,460,50,880,3
385,460,50,880,3
386,460,40,880,3
387,460,50,890,3
388,460,40,900,3
389,460,50,900,3
390,460,50,890,3
391,460,50,890,3
392,460,50,880,3
393,460,50,880,3
394,470,40,890,3
395,480,40,920,3
396,460,40,960,3
397,360,50,890,3
398,350,60,870,3
399,430,20,950,3
400,450,-20,1060,3
401,350,-10,1340,3
402,230,50,1630,3
403,250,140,1880,3
404,180,270,1860,3
405,360,320,1720,3
406,360,360,1460,3
407,230,370,1180,3
408,110,450,960,3
409,70,390,660,3
410,-100,370,410,3
411,-160,280,170,3
412,-80,60,100,3
413,-320,-110,-50,3
414,-200,-330,-160,3
415,10,-540,-270,3
416,240,-620,-390,3
417,440,-930,-370,3
418,470,-1050,-280,3
419,660,-1080,100,3
420,680,-1150,410,3
421,860,-940,880,3
422,750,-640,1160,3
423,660,-450,1320,3
424,400,-150,1560,3
425,100,0,1700,3
426,20,110,1790,3
427,-70,160,1520,3
428,110,120,1180,3
429,280,50,890,3
430,320,-30,650,3
431,380,-130,460,3
432,580,-240,270,3
433,800,-410,180,3
434,910,-520,140,3
435,1010,-590,310,3
436,1070,-570,480,3
437,1080,-480,770,3
438,1060,-390,840,3
439,960,-230,960,3
440,920,-130,940,3
441,810,130,960,3
442,730,230,890,3
443,780,290,780,3
444,720,350,650,3
445,700,240,570,3
446,760,210,580,3
447,730,190,540,3
448,780,100,620,3
449,750,80,610,3
450,790,0,660,3
451,800,-10,620,3
452,770,-20,590,3
453,800,0,600,3
454,840,-20,610,3
455,840,-10,630,3
456,800,0,610,3
457,800,10,600,3
458,800,0,610,3
459,820,0,580,3
460,810,0,590,3
461,780,10,600,3
462,750,0,630,3
463,810,10,620,3
464,720,0,550,3
465,800,20,580,3
466,730,20,620,3
467,770,60,740,3
468,770,-30,710,3
469,770,0,710,3
470,770,40,740,3
471,730,0,700,3
472,830,-60,550,3
473,660,100,610,3
474,780,-50,600,3
475,710,40,650,3
476,780,10,700,3
477,740,40,740,3
478,750,-10,680,3
479,780,20,600,3
480,740,30,600,3
481,740,10,650,3
482,790,30,630,3
483,760,30,590,3
484,830,20,640,3
485,750,0,640,3
486,780,0,630,3
487,760,0,620,3
488,780,0,620,3
489,780,0,620,3
490,760,0,620,3
491,760,0,620,3
492,770,0,620,3
493,770,0,630,3
494,770,0,630,3
495,770,0,620,3
496,770,0,610,3
497,770,0,620,3
498,770,0,630,3
499,770,0,620,3
500,780,0,610,0
501,770,0,610,0
502,770,0,620,0
503,780,0,620,0
504,770,0,620,0
505,770,0,620,0
506,780,0,630,0
507,770,10,630,0
508,770,0,630,0
509,770,0,630,0
510,770,0,630,0
511,760,0,620,0
512,760,0,630,0
513,770,0,620,0
514,770,0,630,0
515,770,0,640,0
516,770,0,650,0
517,770,0,640,0
518,760,0,630,0
519,770,0,620,0
520,760,10,630,0
521,770,10,630,0
522,760,0,620,0
523,770,0,640,0
524,760,10,640,0
525,760,10,650,0
526,770,0,640,0
527,750,10,640,0
528,760,0,640,0
529,760,0,640,0
530,760,0,630,0
531,770,0,630,0
532,770,10,630,0
533,770,0,640,0
534,770,10,650,0
535,750,10,640,0
536,760,10,630,0
537,770,10,640,0
538,770,10,630,0
539,770,0,640,0
540,770,0,640,0
541,770,0,630,0
542,770,-10,640,0
543,770,0,640,0
544,770,0,640,0
545,760,0,630,0
546,770,0,640,0
547,750,0,630,0
548,770,0,640,0
549,760,10,640,0
550,770,0,640,0
551,760,0,640,0
552,760,0,640,0
553,750,0,650,0
554,750,10,660,0
555,770,0,640,0
556,760,0,620,0
557,760,0,620,0
558,760,0,620,0
559,760,10,630,0
560,770,10,640,0
561,770,10,650,0
562,770,0,660,0
563,770,0,650,0
564,760,0,630,0
565,760,10,620,0
566,770,0,610,0
567,760,0,620,0
568,770,0,640,0
569,770,0,650,0
570,770,0,640,0
571,770,-10,630,0
572,770,0,630,0
573,770,0,630,0
574,760,0,630,0
575,760,0,620,0
576,770,0,630,0
577,770,0,630,0
578,760,0,630,0
579,770,0,630,0
580,770,0,640,0
581,770,0,640,0
582,770,0,630,0
583,770,0,630,0
584,760,0,630,0
585,770,0,630,0
586,770,0,620,0
587,770,0,640,0
588,760,0,640,0
589,770,0,630,0
590,770,0,620,0
591,770,0,620,0
592,770,0,630,0
593,770,0,630,0
594,770,0,630,0
595,770,0,630,0
596,770,0,620,0
597,770,0,630,0
598,770,10,630,0
599,770,10,630,0
600,770,0,630,0
601,770,0,620,0
602,770,0,630,0
603,770,0,630,0
604,770,0,620,0
605,770,0,620,0
606,770,0,630,0
607,770,0,630,0
608,770,0,630,0
609,770,0,620,0
610,770,0,620,0
611,770,0,620,0
612,770,0,620,0
613,770,0,620,0
614,770,0,630,0
615,770,0,630,0
616,760,0,620,0
617,770,0,630,0
618,770,0,620,0
619,770,0,630,0
620,770,10,630,0
621,770,0,630,0
622,770,0,620,0
623,770,0,620,0
624,770,0,620,0
625,770,0,610,0
626,770,0,620,0
627,770,0,630,0
628,770,0,630,0
629,780,0,630,0
630,770,0,620,0
631,770,0,620,0
632,770,0,620,0
633,770,0,610,0
634,770,0,610,0
635,770,0,620,0
636,770,0,630,0
637,770,0,630,0
638,770,0,630,0
639,770,0,620,0
640,770,0,620,0
641,770,0,610,0
642,770,0,610,0
643,770,0,620,0
644,770,0,620,0
645,770,0,630,0
646,770,0,630,0
647,780,0,630,0
648,770,0,630,0
649,770,0,610,0
650,770,0,610,0
651,770,0,610,0
652,770,0,620,0
653,770,0,610,0
654,770,0,620,0
655,770,-10,630,0
656,770,-10,620,0
657,770,0,620,0
658,770,0,640,0
659,770,-10,610,0
660,740,0,640,0
661,760,0,650,0
662,760,-10,660,0
663,750,0,660,0
664,770,0,660,0
665,740,0,660,0
666,740,-10,630,0
667,720,10,660,0
668,780,-10,670,0
669,740,-10,680,0
670,740,0,700,0
671,720,50,700,0
672,770,0,680,0
673,750,0,640,0
674,770,0,620,0
675,760,10,620,0
676,750,-10,620,0
677,760,0,620,0
678,770,0,630,0
679,760,0,630,0
680,770,0,640,0
681,770,0,640,0
682,770,0,630,0
683,770,0,630,0
684,770,0,640,0
685,760,0,630,0
686,770,0,630,0
687,770,0,630,0
688,770,0,640,0
689,770,0,640,0
690,760,0,630,0
691,770,0,630,0
692,770,0,630,0
693,760,0,640,0
694,770,0,630,0
695,760,0,630,0
696,760,-10,630,0
697,770,0,630,0
698,760,0,630,0
699,760,0,640,0
700,770,-10,630,3
701,770,0,640,3
702,770,0,630,3
703,770,-10,640,3
704,770,-10,630,3
705,770,-10,640,3
706,760,-10,630,3
707,760,-10,630,3
708,770,-10,630,3
709,770,0,630,3
710,770,0,630,3
711,760,0,630,3
712,760,0,630,3
713,770,-10,630,3
714,770,0,650,3
715,770,-10,630,3
716,770,0,620,3
717,770,0,630,3
718,770,-10,630,3
719,780,10,650,3
720,750,60,740,3
721,520,160,830,3
722,790,180,1080,3
723,790,130,1360,3
724,1100,70,1460,3
725,1470,-120,1230,3
726,1310,-370,870,3
727,1410,-500,380,3
728,1070,-650,40,3
729,730,-870,-310,3
730,570,-980,-600,3
731,450,-920,-930,3
732,460,-610,-1010,3
733,430,-300,-780,3
734,290,0,-480,3
735,230,190,-160,3
736,200,370,140,3
737,110,470,520,3
738,120,370,820,3
739,210,480,1030,3
740,350,360,980,3
741,560,340,1220,3
742,650,150,1220,3
743,720,140,1310,3
744,730,-50,1330,3
745,790,-10,1250,3
746,890,-160,1070,3
747,840,-260,910,3
748,750,-240,730,3
749,850,-160,680,3
750,940,-210,580,3
751,930,-180,590,3
752,940,-120,550,3
753,950,-110,600,3
754,870,-50,580,3
755,910,-20,580,3
756,860,-40,590,3
757,850,-30,560,3
758,860,-30,510,3
759,900,10,490,3
760,890,10,500,3
761,890,20,480,3
762,880,0,480,3
763,880,20,480,3
764,870,30,470,3
765,860,40,480,3
766,880,0,470,3
767,850,30,470,3
768,890,10,480,3
769,890,30,490,3
770,850,10,470,3
771,860,40,520,3
772,830,-20,470,3
773,940,10,510,3
774,900,0,570,3
775,920,40,520,3
776,860,60,520,3
777,840,0,480,3
778,850,20,450,3
779,780,100,470,3
780,840,0,500,3
781,850,20,500,3
782,880,30,480,3
783,860,60,550,3
784,890,40,570,3
785,880,30,530,3
786,870,30,460,3
787,790,70,430,3
788,910,30,470,3
789,870,40,470,3
790,880,40,470,3
791,870,40,470,3
792,880,30,470,3
793,880,40,470,3
794,880,40,480,3
795,870,40,480,3
796,860,40,470,3
797,860,40,470,3
798,870,40,480,3
799,870,40,470,3
800,870,40,470,0
801,870,40,480,0
802,870,30,470,0
803,860,20,480,0
804,860,30,470,0
805,870,40,470,0
806,870,40,470,0
807,870,40,470,0
808,870,40,470,0
809,870,40,470,0
810,870,40,470,0
811,880,40,470,0
812,860,40,470,0
813,870,40,470,0
814,880,40,470,0
815,880,40,470,0
816,900,40,470,0
817,900,50,470,0
818,890,50,470,0
819,880,50,470,0
820,890,50,470,0
821,880,30,480,0
822,860,20,500,0
823,860,10,500,0
824,850,20,490,0
825,850,30,480,0
826,840,20,480,0
827,850,20,500,0
828,850,20,490,0
829,890,30,500,0
830,860,30,490,0
831,850,20,480,0
832,850,20,490,0
833,860,20,490,0
834,880,20,490,0
835,890,10,490,0
836,880,10,480,0
837,870,20,480,0
838,900,10,500,0
839,900,0,490,0
840,890,0,490,0
841,870,10,510,0
842,850,0,510,0
843,850,0,540,0
844,830,-10,540,0
845,840,-20,550,0
846,830,-10,550,0
847,780,-20,550,0
848,760,-50,550,0
849,800,-70,550,0
850,790,-70,560,0
851,790,-110,580,0
852,780,-100,600,0
853,780,-110,600,0
854,810,-90,620,0
855,790,-90,610,0
856,790,-90,590,0
857,800,-90,570,0
858,780,-100,560,0
859,770,-100,550,0
860,780,-100,560,0
861,790,-80,550,0
862,830,-100,570,0
863,840,-80,570,0
864,860,-90,570,0
865,840,-100,580,0
866,820,-110,600,0
867,820,-110,600,0
868,830,-70,570,0
869,860,-50,540,0
870,870,-20,530,0
871,870,-10,510,0
872,850,0,510,0
873,840,0,510,0
874,850,-20,490,0
875,850,0,490,0
876,860,0,500,0
877,870,0,510,0
878,870,10,530,0
879,860,0,510,0
880,850,0,490,0
881,850,-10,490,0
882,860,0,480,0
883,860,0,480,0
884,870,10,480,0
885,860,10,480,0
886,860,20,470,0
887,870,30,470,0
888,880,30,470,0
889,870,20,470,0
890,890,20,470,0
891,890,20,470,0
892,860,20,470,0
893,890,0,470,0
894,890,20,470,0
895,880,30,470,0
896,870,20,470,0
897,900,10,470,0
898,900,10,470,0
899,890,20,470,0
900,870,30,470,0
901,870,30,460,0
902,890,30,450,0
903,890,40,460,0
904,880,40,460,0
905,880,30,460,0
906,890,30,450,0
907,900,20,460,0
908,900,20,460,0
909,900,20,460,0
910,910,10,450,0
911,890,20,440,0
912,890,10,450,0
913,890,20,450,0
914,900,10,450,0
915,900,10,450,0
916,910,20,460,0
917,890,30,450,0
918,900,20,450,0
919,890,20,450,0
920,890,20,450,0
921,880,10,450,0
922,890,0,450,0
923,880,0,450,0
924,900,0,450,0
925,880,10,460,0
926,880,10,460,0
927,900,0,450,0
928,910,20,450,0
929,900,10,450,0
930,900,10,460,0
931,910,10,450,0
932,880,30,450,0
933,910,30,460,0
934,890,10,470,0
935,880,30,470,0
936,880,40,470,0
937,870,20,470,0
938,870,0,460,0
939,870,40,470,0
940,860,30,550,0
941,870,20,480,0
942,850,10,470,0
943,840,20,530,0
944,910,20,490,0
945,910,20,470,0
946,860,10,460,0
947,850,10,470,0
948,860,20,470,0
949,860,20,470,0
950,870,10,480,0
951,860,20,480,0
952,870,30,490,0
953,910,0,480,0
954,880,40,470,0
955,870,30,480,0
956,890,20,480,0
957,870,20,480,0
958,850,0,480,0
959,860,10,500,0
960,850,20,500,0
961,870,20,500,0
962,860,30,490,0
963,860,30,480,0
964,860,20,490,0
965,860,20,490,0
966,860,20,490,0
967,860,20,500,0
968,870,20,480,0
969,860,30,490,0
970,860,20,490,0
971,860,20,490,0
972,860,30,490,0
973,860,30,490,0
974,860,30,490,0
975,860,30,490,3
976,870,30,490,3
977,860,20,500,3
978,860,20,490,3
979,860,20,490,3
980,860,30,490,3
981,850,30,480,3
982,860,30,490,3
983,860,30,490,3
984,860,20,500,3
985,860,30,500,3
986,860,30,490,3
987,860,30,500,3
988,860,30,500,3
989,860,30,500,3
990,860,30,490,3
991,860,30,490,3
992,850,30,490,3
993,850,30,490,3
994,860,30,490,3
995,860,30,490,3
996,860,30,490,3
997,860,30,490,3
998,850,40,500,3
999,850,40,490,3
1000,850,30,510,3
1001,840,20,590,3
1002,920,-10,880,3
1003,930,-60,1310,3
1004,1230,-90,1930,3
1005,1270,-90,2000,3
1006,1400,-30,1620,3
1007,1570,10,1050,3
1008,1010,140,380,3
1009,790,210,130,3
1010,370,200,-60,3
1011,-40,220,150,3
1012,-500,300,670,3
1013,-810,310,1130,3
1014,-780,110,1150,3
1015,-380,-60,910,3
1016,160,-450,430,3
1017,450,-820,80,3
1018,670,-1060,-80,3
1019,650,-1220,-120,3
1020,590,-1260,10,3
1021,470,-1240,170,3
1022,460,-1210,250,3
1023,460,-1040,350,3
1024,460,-920,480,3
1025,290,-660,740,3
1026,-100,-470,860,3
1027,-280,-250,930,3
1028,-320,60,650,3
1029,-160,220,570,3
1030,-40,240,400,3
1031,210,40,910,3
1032,-90,70,1580,3
1033,-10,140,2260,3
1034,-120,100,1990,3
1035,300,-190,1410,3
1036,650,-400,600,3
1037,990,-810,20,3
1038,1190,-1170,-250,3
1039,950,-1250,10,3
1040,810,-1040,320,3
1041,840,-760,410,3
1042,650,-270,570,3
1043,430,80,680,3
1044,230,430,870,3
1045,300,500,870,3
1046,470,400,1040,3
1047,470,250,1220,3
1048,600,180,1460,3
1049,580,140,1420,3
1050,600,110,1180,3
1051,720,20,800,3
1052,950,-110,440,3
1053,1240,-390,180,3
1054,1100,-360,230,3
1055,910,-220,470,3
1056,710,-60,660,3
1057,720,50,720,3
1058,780,130,710,3
1059,790,120,680,3
1060,810,110,690,3
1061,780,100,660,3
1062,760,100,660,3
1063,790,90,630,3
1064,810,50,590,3
1065,840,40,540,3
1066,890,30,520,3
1067,830,30,520,3
1068,850,40,530,3
1069,830,60,530,3
1070,840,70,520,3
1071,860,50,510,3
1072,870,40,520,3
1073,870,40,520,3
1074,850,10,520,3
1075,870,30,510,3
1076,840,20,490,3
1077,850,70,540,3
1078,850,20,540,3
1079,840,30,520,3
1080,800,20,500,3
1081,870,80,520,3
1082,850,10,550,3
1083,840,70,570,3
1084,890,0,560,3
1085,790,30,510,3
1086,840,80,490,3
1087,780,40,530,3
1088,860,30,510,3
1089,830,70,570,3
1090,840,80,610,3
1091,860,10,600,3
1092,890,40,500,3
1093,850,40,470,3
1094,850,50,490,3
1095,860,20,500,3
1096,830,50,490,3
1097,860,20,500,3
1098,850,40,510,3
1099,850,40,540,3
1100,850,30,530,0
1101,840,10,500,0
1102,840,10,530,0
1103,840,10,540,0
1104,850,10,540,0
1105,850,10,540,0
1106,840,10,540,0
1107,840,10,540,0
1108,850,20,560,0
1109,850,10,550,0
1110,850,10,540,0
1111,850,10,530,0
1112,850,10,530,0
1113,850,10,530,0
1114,840,10,520,0
1115,850,10,530,0
1116,850,10,520,0
1117,850,10,520,0
1118,850,10,530,0
1119,850,10,520,0
1120,850,0,520,0
1121,850,10,540,0
1122,860,0,530,0
1123,850,10,520,0
1124,850,20,510,0
1125,850,20,500,0
1126,850,20,500,0
1127,850,30,510,0
1128,850,20,520,0
1129,860,10,530,0
1130,850,10,520,0
1131,850,20,510,0
1132,850,20,500,0
1133,850,20,500,0
1134,860,20,530,0
1135,800,50,530,0
1136,820,70,490,0
1137,860,60,500,0
1138,860,20,510,0
1139,860,0,520,0
1140,850,0,530,0
1141,850,0,520,0
1142,870,10,510,0
1143,870,40,500,0
1144,870,40,500,0
1145,860,50,490,0
1146,850,50,490,0
1147,850,40,510,0
1148,860,40,510,0
1149,860,40,500,0
1150,850,40,500,0
1151,850,30,490,0
1152,850,20,490,0
1153,850,30,490,0
1154,860,40,500,0
1155,860,40,510,0
1156,850,30,500,0
1157,850,20,500,0
1158,860,30,500,0
1159,860,20,500,0
1160,860,30,500,0
1161,860,20,500,0
1162,850,30,490,0
1163,860,40,500,0
1164,860,40,500,0
1165,860,50,510,0
1166,860,40,510,0
1167,850,40,510,0
1168,850,40,510,0
1169,850,30,500,0
1170,850,30,510,0
1171,850,20,520,0
1172,850,20,520,0
1173,850,20,510,0
1174,850,10,510,0
1175,850,10,510,0
1176,850,10,510,0
1177,860,10,510,0
1178,860,20,520,0
1179,860,20,520,0
1180,850,20,520,0
1181,850,20,530,0
1182,850,10,520,0
1183,860,10,510,0
1184,850,20,520,0
1185,850,10,520,0
1186,850,10,520,0
1187,850,20,520,0
1188,850,10,530,0
1189,850,10,530,0
1190,850,10,530,0
1191,850,20,510,0
1192,850,20,520,0
1193,850,10,520,0
1194,860,10,520,0
1195,850,20,520,0
1196,840,20,520,0
1197,850,30,530,0
1198,850,20,520,0
1199,850,10,530,0
1200,850,0,530,0
1201,850,10,530,0
1202,850,10,520,0
1203,850,10,520,0
1204,850,10,520,0
1205,850,10,530,0
1206,850,20,520,0
1207,850,10,530,0
1208,850,10,520,0
1209,850,10,510,0
1210,850,10,520,0
1211,850,20,520,0
1212,850,10,520,0
1213,850,10,520,0
1214,850,10,520,0
1215,850,10,520,0
1216,850,10,520,0
1217,850,10,520,0
1218,850,20,520,0
1219,850,20,530,0
1220,850,20,520,0
1221,850,20,520,0
1222,850,30,530,0
1223,850,20,520,0
1224,850,20,520,0
1225,850,20,530,0
1226,850,20,520,0
1227,850,20,520,0
1228,850,20,520,0
1229,850,20,510,0
1230,850,20,520,0
1231,850,20,530,0
1232,850,20,520,0
1233,850,10,520,0
1234,850,20,530,0
1235,850,20,520,0
1236,850,10,520,0
1237,850,20,520,0
1238,850,20,520,0
1239,850,10,520,0
1240,850,10,520,0
1241,850,10,520,0
1242,850,10,520,0
1243,850,10,520,0
1244,840,10,510,0
1245,850,10,520,0
1246,850,10,520,0
1247,850,20,520,0
1248,850,10,520,0
1249,850,10,530,0
1250,850,10,520,0
1251,850,10,530,0
1252,850,10,530,0
1253,850,10,520,0
1254,850,10,520,0
1255,850,10,520,0
1256,850,10,520,0
1257,850,10,520,0
1258,850,10,520,0
1259,850,10,520,0
1260,850,10,520,0
1261,850,10,520,0
1262,850,10,520,0
1263,850,10,510,0
1264,850,10,510,0
1265,850,20,520,0
1266,850,10,520,0
1267,850,10,520,0
1268,850,10,520,0
1269,850,10,520,0
1270,860,10,520,0
1271,850,10,520,0
1272,850,10,520,0
1273,850,10,520,0
1274,850,10,510,0
1275,850,10,510,0
1276,850,20,520,0
1277,850,10,520,0
1278,850,10,510,0
1279,850,10,520,0
1280,860,10,520,0
1281,850,10,510,0
1282,850,10,510,0
1283,850,10,510,0
1284,850,10,510,0
1285,860,10,520,0
1286,850,10,510,0
1287,860,10,500,0
1288,850,20,500,0
1289,850,10,510,0
1290,850,10,510,0
1291,860,10,510,0
1292,860,10,520,0
1293,860,10,510,0
1294,850,10,510,0
1295,860,20,520,0
1296,850,10,500,0
1297,860,10,510,0
1298,850,10,510,0
1299,860,10,510,0
1300,860,20,510,0
1301,860,10,520,0
1302,850,10,510,0
1303,860,20,510,0
1304,850,10,510,0
1305,860,10,510,0
1306,850,10,510,0
1307,850,10,510,0
1308,850,10,510,0
1309,860,10,520,0
1310,860,10,510,0
1311,850,10,500,0
1312,860,10,510,0
1313,860,10,520,0
1314,840,30,520,0
1315,860,10,530,0
1316,850,30,530,0
1317,840,10,540,0
1318,840,30,540,0
1319,830,20,570,0
1320,860,-40,550,0
1321,780,20,540,0
1322,840,20,600,0
1323,850,20,590,0
1324,830,20,570,0
1325,800,-10,560,0
1326,840,50,540,0
1327,860,30,530,0
1328,820,20,530,0
1329,840,40,520,0
1330,830,20,530,0
1331,800,10,530,0
1332,850,20,550,0
1333,840,20,570,0
1334,840,20,550,0
1335,840,20,550,0
1336,850,20,540,0
1337,850,20,540,0
1338,840,20,540,0
1339,850,30,540,0
1340,840,30,540,0
1341,850,30,540,0
1342,840,30,540,0
1343,840,30,540,0
1344,850,30,540,0
1345,850,20,540,0
1346,850,30,540,0
1347,840,20,540,0
1348,850,30,540,0
1349,850,30,540,0
1350,850,30,540,3
1351,840,30,540,3
1352,840,30,540,3
1353,850,30,540,3
1354,840,40,540,3
1355,850,30,550,3
1356,840,20,540,3
1357,840,30,540,3
1358,850,30,540,3
1359,850,30,540,3
1360,840,30,540,3
1361,840,30,540,3
1362,850,30,550,3
1363,850,30,540,3
1364,850,30,550,3
1365,850,30,550,3
1366,840,30,540,3
1367,850,30,540,3
1368,850,30,530,3
1369,840,40,570,3
1370,750,40,540,3
1371,740,10,560,3
1372,850,0,650,3
1373,850,-100,1110,3
1374,1000,-110,1710,3
1375,1490,-80,2160,3
1376,1350,20,1930,3
1377,1490,100,1430,3
1378,1480,240,650,3
1379,840,320,210,3
1380,770,260,-10,3
1381,310,160,-20,3
1382,-260,230,610,3
1383,-1100,470,1140,3
1384,-1110,390,1430,3
1385,-700,450,1020,3
1386,-60,220,450,3
1387,490,-230,-40,3
1388,1520,-630,-300,3
1389,1950,-910,-350,3
1390,1600,-1460,-270,3
1391,1000,-1350,-130,3
1392,740,-990,120,3
1393,450,-640,470,3
1394,300,-200,920,3
1395,210,0,1370,3
1396,230,190,1600,3
1397,230,510,1810,3
1398,100,720,1890,3
1399,-60,640,1860,3
1400,10,480,1620,3
1401,250,290,1160,3
1402,990,-40,400,3
1403,1500,-1280,-370,3
1404,1330,-1060,-180,3
1405,740,-1060,220,3
1406,400,-760,610,3
1407,380,-590,740,3
1408,480,-460,760,3
1409,540,-420,740,3
1410,520,-390,780,3
1411,490,-390,720,3
1412,520,-350,760,3
1413,480,-320,730,3
1414,580,-260,750,3
1415,550,-210,790,3
1416,600,-180,820,3
1417,600,-160,810,3
1418,570,-130,780,3
1419,680,-120,750,3
1420,740,-120,730,3
1421,750,-130,680,3
1422,770,-110,650,3
1423,740,-110,680,3
1424,830,-90,690,3
1425,900,-60,730,3
1426,900,-40,730,3
1427,900,-20,720,3
1428,850,0,670,3
1429,860,0,600,3
1430,860,0,580,3
1431,860,-10,540,3
1432,830,-10,480,3
1433,850,-10,520,3
1434,870,30,540,3
1435,850,-30,520,3
1436,770,40,490,3
1437,870,20,540,3
1438,780,0,540,3
1439,840,10,580,3
1440,820,0,550,3
1441,860,10,590,3
1442,840,40,610,3
1443,850,-40,580,3
1444,780,10,510,3
1445,810,40,500,3
1446,850,-20,570,3
1447,810,20,590,3
1448,840,0,550,3
1449,830,0,590,3
1450,830,0,570,3
1451,820,0,530,3
1452,860,60,520,3
1453,850,10,530,3
1454,850,0,530,3
1455,900,50,490,3
1456,860,-10,500,3
1457,860,0,530,3
1458,850,0,520,3
1459,860,-10,510,3
1460,860,-10,510,3
1461,860,0,500,3
1462,860,0,510,3
1463,850,-10,510,3
1464,850,-20,500,3
1465,850,-10,510,3
1466,850,0,510,3
1467,850,-10,510,3
1468,850,-20,500,3
1469,860,-20,490,3
1470,870,-10,510,3
1471,860,0,500,3
1472,850,-10,490,3
1473,860,-10,480,3
1474,860,-10,490,3
1475,860,-10,490,0
1476,870,-10,490,0
1477,860,-10,490,0
1478,860,-10,490,0
1479,860,-10,490,0
1480,870,-20,490,0
1481,870,-10,490,0
1482,870,-20,480,0
1483,860,-20,480,0
1484,860,-10,480,0
1485,860,-20,480,0
1486,860,-20,480,0
1487,870,-20,480,0
1488,860,-20,480,0
1489,870,-20,480,0
1490,860,-20,480,0
1491,860,-20,490,0
1492,870,-20,480,0
1493,870,-20,480,0
1494,870,-20,480,0
1495,860,-20,480,0
1496,860,-10,470,0
1497,870,-20,470,0
1498,860,-10,470,0
1499,860,-10,480,0
1500,870,-20,480,0
1501,870,-20,480,0
1502,870,-20,480,0
1503,870,-20,470,0
1504,870,-20,470,0
1505,870,-10,470,0
1506,870,-10,480,0
1507,860,-10,470,0
1508,870,-10,470,0
1509,880,-20,470,0
1510,870,-10,470,0
1511,880,-10,480,0
1512,880,-20,480,0
1513,870,-20,470,0
1514,880,-20,470,0
1515,880,-20,470,0
1516,870,-20,470,0
1517,860,-20,470,0
1518,870,-20,470,0
1519,870,-20,470,0
1520,880,-20,470,0
1521,880,-20,470,0
1522,870,-20,470,0
1523,870,-20,470,0
1524,870,-20,470,0
1525,870,-20,470,0
1526,860,-20,470,0
1527,880,-20,470,0
1528,880,-20,470,0
1529,880,-20,470,0
1530,870,-30,470,0
1531,870,-20,470,0
1532,870,-10,470,0
1533,870,-20,470,0
1534,870,-20,470,0
1535,870,-10,470,0
1536,870,-20,470,0
1537,880,-20,470,0
1538,870,-10,470,0
1539,880,-20,470,0
1540,880,-10,480,0
1541,870,-20,470,0
1542,870,-20,470,0
1543,870,-10,470,0
1544,870,-20,470,0
1545,870,-10,470,0
1546,870,-10,470,0
1547,870,-10,470,0
1548,870,-20,470,0
1549,880,-20,470,0
1550,870,-10,470,0
1551,870,-20,470,0
1552,870,-20,470,0
1553,870,-10,470,0
1554,880,-10,470,0
1555,880,-20,470,0
1556,880,-20,480,0
1557,880,-10,470,0
1558,870,-10,470,0
1559,870,-10,460,0
1560,880,-20,470,0
1561,870,-20,470,0
1562,880,-20,470,0
1563,880,-20,470,0
1564,870,-20,480,0
1565,870,-20,480,0
1566,880,-20,470,0
1567,880,-10,470,0
1568,870,-10,470,0
1569,860,-10,470,0
1570,880,-20,470,0
1571,870,-20,470,0
1572,870,-20,470,0
1573,880,-20,470,0
1574,870,-20,470,0
1575,870,-20,480,0
1576,870,-20,470,0
1577,870,-20,470,0
1578,880,-20,470,0
1579,870,-20,470,0
1580,880,-30,470,0
1581,870,-20,470,0
1582,870,-20,470,0
1583,870,-20,470,0
1584,870,-20,470,0
1585,870,-20,470,0
1586,870,-20,470,0
1587,880,-20,470,0
1588,880,-20,470,0
1589,870,-20,470,0
1590,870,-20,470,0
1591,870,-20,470,0
1592,870,-20,470,0
1593,880,-20,470,0
1594,870,-20,470,0
1595,880,-20,470,0
1596,880,-20,480,0
1597,870,-20,470,0
1598,870,-20,470,0
1599,870,-20,470,0
1600,870,-20,470,0
1601,880,-20,470,0
1602,870,-20,470,0
1603,870,-20,470,0
1604,880,-20,470,0
1605,870,-20,470,0
1606,870,-20,470,0
1607,870,-20,470,0
1608,870,-20,470,0
1609,870,-20,470,0
1610,870,-20,470,0
1611,880,-30,470,0
1612,870,-20,470,0
1613,880,-30,480,0
1614,870,-30,470,0
1615,870,-30,470,0
1616,880,-20,470,0
1617,880,-30,470,0
1618,870,-30,470,0
1619,880,-20,470,0
1620,880,-30,470,0
1621,870,-30,470,0
1622,880,-20,470,0
1623,880,-30,470,0
1624,870,-20,470,0
1625,880,-20,470,0
1626,880,-20,470,0
1627,870,-20,470,0
1628,870,-30,470,0
1629,870,-20,470,0
1630,880,-30,470,0
1631,870,-30,470,0
1632,870,-20,470,0
1633,880,-20,470,0
1634,890,-20,470,0
1635,870,-20,470,0
1636,890,-30,480,0
1637,870,-30,470,0
1638,860,0,490,0
1639,880,-30,480,0
1640,860,-10,510,0
1641,850,-20,510,0
1642,870,-10,490,0
1643,850,-40,490,0
1644,830,10,510,0
1645,880,-30,520,0
1646,860,-20,510,0
1647,850,-30,530,0
1648,860,-10,530,0
1649,860,-10,490,0
1650,860,-20,480,0
1651,860,-20,490,0
1652,860,-10,480,0
1653,840,-50,470,0
1654,870,-20,480,0
1655,860,-10,490,0
1656,860,-10,490,0
1657,860,-10,500,0
1658,860,-10,490,0
1659,860,-10,480,0
1660,860,-10,490,0
1661,860,0,490,0
1662,860,-10,480,0
1663,860,-10,490,0
1664,860,-10,490,0
1665,870,-10,490,0
1666,860,-10,490,0
1667,860,-10,490,0
1668,860,0,490,0
1669,860,0,480,0
1670,860,-10,490,0
1671,860,0,490,0
1672,860,-10,490,0
1673,860,-10,490,0
1674,860,0,490,0
1675,860,0,490,3
1676,870,0,490,3
1677,860,0,500,3
1678,860,0,490,3
1679,860,0,490,3
1680,860,-10,490,3
1681,860,-10,490,3
1682,860,-10,490,3
1683,860,-10,490,3
1684,860,0,500,3
1685,860,-10,490,3
1686,860,0,490,3
1687,860,0,500,3
1688,860,0,490,3
1689,860,0,490,3
1690,860,0,500,3
1691,860,0,490,3
1692,860,10,490,3
1693,870,20,510,3
1694,890,20,520,3
1695,860,10,560,3
1696,880,30,550,3
1697,820,60,580,3
1698,840,90,500,3
1699,830,70,490,3
1700,800,120,540,3
1701,760,330,670,3
1702,680,410,770,3
1703,830,430,860,3
1704,890,320,1010,3
1705,920,210,1140,3
1706,940,30,1200,3
1707,960,-180,1070,3
1708,970,-290,960,3
1709,870,-380,830,3
1710,760,-260,720,3
1711,720,-250,610,3
1712,530,-190,590,3
1713,420,-70,660,3
1714,390,90,770,3
1715,80,280,990,3
1716,-90,480,1170,3
1717,-80,600,1290,3
1718,-290,700,1260,3
1719,-340,650,1190,3
1720,-410,560,1120,3
1721,-430,460,990,3
1722,-360,340,900,3
1723,-280,200,730,3
1724,-150,0,580,3
1725,-30,-220,500,3
1726,130,-420,410,3
1727,270,-820,460,3
1728,290,-940,470,3
1729,200,-1120,560,3
1730,260,-1230,700,3
1731,260,-1180,730,3
1732,270,-1090,750,3
1733,230,-940,630,3
1734,230,-810,490,3
1735,190,-590,470,3
1736,90,-320,450,3
1737,10,-110,510,3
1738,-110,160,710,3
1739,-290,400,840,3
1740,-410,560,1210,3
1741,-580,570,1340,3
1742,-480,470,1150,3
1743,-120,250,1020,3
1744,200,100,840,3
1745,410,-60,760,3
1746,670,-240,750,3
1747,740,-440,740,3
1748,920,-530,740,3
1749,1110,-550,860,3
1750,970,-450,980,3
1751,950,-390,1100,3
1752,840,-130,1100,3
1753,850,0,1070,3
1754,830,240,970,3
1755,680,400,870,3
1756,630,410,820,3
1757,610,300,730,3
1758,700,220,680,3
1759,700,160,650,3
1760,750,70,650,3
1761,830,10,640,3
1762,760,-30,650,3
1763,790,-30,640,3
1764,730,20,650,3
1765,770,20,640,3
1766,800,20,610,3
1767,790,10,620,3
1768,800,10,600,3
1769,780,20,610,3
1770,800,10,630,3
1771,790,40,610,3
1772,800,10,610,3
1773,790,30,610,3
1774,790,20,600,3
1775,730,20,570,3
1776,740,40,680,3
1777,720,30,650,3
1778,760,60,740,3
1779,740,-20,680,3
1780,740,50,680,3
1781,730,40,720,3
1782,730,30,720,3
1783,760,30,730,3
1784,730,-10,610,3
1785,760,90,660,3
1786,750,0,640,3
1787,730,70,660,3
1788,720,40,700,3
1789,720,70,730,3
1790,750,0,730,3
1791,740,40,650,3
1792,810,60,600,3
1793,690,20,580,3
1794,790,40,600,3
1795,770,20,600,3
1796,780,30,610,3
1797,780,30,620,3
1798,780,30,620,3
1799,780,30,620,3
1800,790,20,610,0
1801,770,30,600,0
1802,790,30,600,0
1803,790,30,600,0
1804,790,30,610,0
1805,790,30,600,0
1806,780,30,600,0
1807,790,30,600,0
1808,800,20,600,0
1809,800,30,600,0
1810,790,20,600,0
1811,790,20,600,0
1812,810,30,590,0
1813,800,20,590,0
1814,810,20,590,0
1815,800,20,590,0
1816,810,20,590,0
1817,820,20,590,0
1818,800,20,590,0
1819,810,20,590,0
1820,820,20,580,0
1821,800,30,580,0
1822,820,20,590,0
1823,820,20,590,0
1824,810,30,590,0
1825,820,30,590,0
1826,820,30,580,0
1827,810,20,590,0
1828,810,30,590,0
1829,830,30,590,0
1830,810,20,580,0
1831,800,20,580,0
1832,820,20,580,0
1833,820,20,570,0
1834,800,20,570,0
1835,820,10,580,0
1836,810,20,590,0
1837,820,30,580,0
1838,820,20,580,0
1839,820,20,570,0
1840,830,20,560,0
1841,830,20,580,0
1842,820,20,580,0
1843,820,30,580,0
1844,830,10,580,0
1845,820,10,580,0
1846,820,20,580,0
1847,840,20,580,0
1848,820,10,580,0
1849,820,10,580,0
1850,820,10,570,0
1851,830,10,590,0
1852,830,10,570,0
1853,820,10,580,0
1854,820,10,580,0
1855,820,20,580,0
1856,800,10,580,0
1857,820,10,570,0
1858,830,10,580,0
1859,820,10,580,0
1860,830,10,580,0
1861,830,10,580,0
1862,820,10,580,0
1863,820,10,570,0
1864,830,10,570,0
1865,830,10,560,0
1866,830,20,570,0
1867,830,10,570,0
1868,820,10,570,0
1869,840,10,570,0
1870,830,10,570,0
1871,830,10,560,0
1872,830,10,560,0
1873,840,10,560,0
1874,840,10,560,0
1875,830,10,570,0
1876,840,10,560,0
1877,840,10,560,0
1878,840,0,550,0
1879,840,0,560,0
1880,850,0,570,0
1881,850,0,560,0
1882,850,0,550,0
1883,850,0,550,0
1884,840,0,540,0
1885,840,10,540,0
1886,840,10,530,0
1887,850,0,540,0
1888,840,0,540,0
1889,840,0,540,0
1890,840,0,540,0
1891,850,0,550,0
1892,850,0,540,0
1893,840,10,540,0
1894,850,0,540,0
1895,850,0,540,0
1896,850,0,550,0
1897,840,10,540,0
1898,850,0,540,0
1899,850,0,540,0
1900,850,0,530,0
1901,850,0,540,0
1902,850,0,540,0
1903,850,0,540,0
1904,850,0,540,0
1905,850,0,540,0
1906,850,0,540,0
1907,850,0,540,0
1908,850,0,540,0
1909,850,0,540,0
1910,850,0,550,0
1911,850,0,550,0
1912,850,0,550,0
1913,850,0,540,0
1914,850,0,540,0
1915,840,0,540,0
1916,840,0,540,0
1917,840,0,550,0
1918,850,0,550,0
1919,850,0,550,0
1920,840,0,550,0
1921,840,0,550,0
1922,850,0,550,0
1923,840,0,550,0
1924,840,0,540,0
1925,850,0,550,0
1926,850,0,550,0
1927,840,0,550,0
1928,840,0,540,0
1929,840,0,550,0
1930,840,0,540,0
1931,850,0,550,0
1932,840,0,550,0
1933,850,0,550,0
1934,840,0,550,0
1935,850,-10,550,0
1936,840,0,550,0
1937,840,0,550,0
1938,840,0,550,0
1939,850,0,550,0
1940,850,0,550,0
1941,840,0,550,0
1942,830,0,560,0
1943,840,0,540,0
1944,850,0,550,0
1945,840,0,550,0
1946,840,0,550,0
1947,840,0,550,0
1948,840,0,550,0
1949,840,0,560,0
1950,840,0,560,0
1951,840,0,560,0
1952,830,0,550,0
1953,840,0,550,0
1954,840,0,550,0
1955,850,0,550,0
1956,850,0,560,0
1957,840,0,560,0
1958,840,0,560,0
1959,840,0,550,0
1960,840,10,550,0
1961,840,0,550,0
1962,840,0,550,0
1963,840,0,550,0
1964,840,0,560,0
1965,840,0,560,0
1966,830,0,560,0
1967,840,10,560,0
1968,830,0,560,0
1969,830,0,580,0
1970,830,0,570,0
1971,820,0,580,0
1972,840,10,590,0
1973,830,10,590,0
1974,820,0,600,0
1975,800,0,580,0
1976,770,40,600,0
1977,790,10,600,0
1978,780,0,570,0
1979,800,10,610,0
1980,800,10,620,0
1981,800,-20,620,0
1982,770,10,590,0
1983,840,10,600,0
1984,790,0,600,0
1985,800,0,580,0
1986,820,10,560,0
1987,790,0,570,0
1988,840,0,570,0
1989,820,0,580,0
1990,820,0,590,0
1991,840,0,590,0
1992,810,0,590,0
1993,810,0,580,0
1994,830,0,570,0
1995,810,0,580,0
1996,820,10,580,0
1997,810,0,570,0
1998,820,0,580,0
1999,830,0,580,0
2000,810,0,580,3
2001,790,10,560,3
2002,830,0,580,3
2003,830,0,580,3
2004,810,0,570,3
2005,830,0,570,3
2006,830,10,570,3
2007,820,10,570,3
2008,830,0,580,3
2009,830,0,560,3
2010,830,10,580,3
2011,830,0,570,3
2012,820,10,570,3
2013,840,0,570,3
2014,820,10,580,3
2015,830,0,570,3
2016,830,0,570,3
2017,830,10,560,3
2018,830,0,570,3
2019,820,0,560,3
2020,820,-10,580,3
2021,800,0,610,3
2022,760,0,580,3
2023,800,20,750,3
2024,760,0,1110,3
2025,1310,-60,1750,3
2026,1140,-60,1860,3
2027,1440,-70,1700,3
2028,1600,-100,1360,3
2029,1150,-10,1000,3
2030,950,-10,590,3
2031,630,100,130,3
2032,330,130,-200,3
2033,250,120,-380,3
2034,-60,110,-500,3
2035,-270,20,-440,3
2036,-180,40,-310,3
2037,60,20,-140,3
2038,300,120,390,3
2039,410,120,590,3
2040,1030,210,1090,3
2041,1060,320,930,3
2042,1540,420,1490,3
2043,1450,680,1870,3
2044,1340,670,2070,3
2045,1070,510,1810,3
2046,970,480,1540,3
2047,1190,500,1490,3
2048,1390,590,1510,3
2049,1570,500,1410,3
2050,1460,520,1050,3
2051,870,520,600,3
2052,950,470,290,3
2053,120,240,-90,3
2054,150,-110,-220,3
2055,-90,-310,-280,3
2056,-390,-400,-270,3
2057,-450,-350,-250,3
2058,-560,-270,-220,3
2059,-380,-220,-120,3
2060,-240,-70,-20,3
2061,140,-200,230,3
2062,220,-90,410,3
2063,670,-140,760,3
2064,740,90,1200,3
2065,870,-20,1060,3
2066,1230,130,1530,3
2067,990,230,1420,3
2068,1330,230,1620,3
2069,820,300,1430,3
2070,920,240,1190,3
2071,780,280,930,3
2072,680,240,770,3
2073,760,130,670,3
2074,720,120,570,3
2075,750,110,560,3
2076,820,30,530,3
2077,840,40,570,3
2078,760,30,560,3
2079,850,0,560,3
2080,860,10,540,3
2081,850,0,520,3
2082,860,0,510,3
2083,840,10,510,3
2084,870,10,520,3
2085,850,10,540,3
2086,860,20,530,3
2087,850,10,530,3
2088,850,10,500,3
2089,850,20,500,3
2090,850,10,520,3
2091,860,10,510,3
2092,860,20,520,3
2093,850,10,500,3
2094,850,10,530,3
2095,840,10,550,3
2096,850,10,550,3
2097,850,10,540,3
2098,850,10,530,3
2099,850,10,530,3
2100,850,10,540,3
2101,850,10,530,3
2102,850,10,500,3
2103,850,20,570,3
2104,830,30,520,3
2105,830,0,520,3
2106,840,20,570,3
2107,830,10,590,3
2108,830,20,600,3
2109,850,-10,490,3
2110,800,20,470,3
2111,850,40,570,3
2112,850,10,600,3
2113,850,30,590,3
2114,800,50,580,3
2115,810,-10,570,3
2116,850,30,490,3
2117,840,40,490,3
2118,840,80,480,3
2119,870,50,500,3
2120,860,20,490,3
2121,870,30,500,3
2122,860,40,510,3
2123,870,30,520,3
2124,870,20,510,3
2125,860,20,510,0
2126,850,30,510,0
2127,860,20,500,0
2128,860,20,490,0
2129,850,20,500,0
2130,850,20,490,0
2131,860,20,490,0
2132,860,10,480,0
2133,860,20,490,0
2134,860,20,500,0
2135,860,10,490,0
2136,860,10,490,0
2137,870,10,490,0
2138,860,10,480,0
2139,860,20,480,0
2140,860,10,480,0
2141,870,10,480,0
2142,870,10,480,0
2143,870,10,480,0
2144,870,10,480,0
2145,870,10,480,0
2146,860,10,470,0
2147,880,10,480,0
2148,860,10,480,0
2149,870,10,480,0
2150,870,10,480,0
2151,870,10,480,0
2152,870,10,480,0
2153,860,10,480,0
2154,870,10,480,0
2155,870,10,480,0
2156,860,10,480,0
2157,870,10,480,0
2158,860,20,480,0
2159,870,10,480,0
2160,860,10,480,0
2161,870,10,480,0
2162,870,20,490,0
2163,860,10,480,0
2164,860,10,480,0
2165,870,10,480,0
2166,860,10,480,0
2167,870,10,480,0
2168,870,10,480,0
2169,860,10,480,0
2170,860,10,480,0
2171,860,10,480,0
2172,870,10,480,0
2173,870,10,490,0
2174,870,10,490,0
2175,860,10,490,0
2176,860,10,480,0
2177,860,10,480,0
2178,860,20,480,0
2179,860,10,480,0
2180,860,10,490,0
2181,860,10,490,0
2182,870,10,490,0
2183,860,10,490,0
2184,860,10,490,0
2185,860,10,480,0
2186,860,10,480,0
2187,860,10,480,0
2188,860,10,480,0
2189,860,10,480,0
2190,870,10,490,0
2191,860,10,490,0
2192,860,10,490,0
2193,870,20,490,0
2194,870,10,480,0
2195,860,10,480,0
2196,860,10,480,0
2197,860,10,480,0
2198,860,10,490,0
2199,870,10,490,0
2200,870,10,490,0
2201,860,10,490,0
2202,860,10,480,0
2203,860,10,480,0
2204,860,10,480,0
2205,860,20,480,0
2206,870,10,490,0
2207,860,0,480,0
2208,860,10,480,0
2209,860,10,480,0
2210,870,10,480,0
2211,860,10,480,0
2212,860,10,480,0
2213,860,10,480,0
2214,870,10,480,0
2215,870,10,480,0
2216,860,10,480,0
2217,870,10,480,0
2218,860,10,480,0
2219,860,10,480,0
2220,870,10,480,0
2221,860,10,480,0
2222,870,0,490,0
2223,860,0,490,0
2224,860,0,480,0
2225,860,10,480,0
2226,870,0,480,0
2227,860,10,480,0
2228,860,0,480,0
2229,870,0,480,0
2230,870,10,490,0
2231,870,10,480,0
2232,860,0,480,0
2233,860,0,480,0
2234,860,10,480,0
2235,870,0,480,0
2236,860,10,480,0
2237,860,10,480,0
2238,870,0,480,0
2239,860,0,480,0
2240,870,10,490,0
2241,860,10,490,0
2242,860,10,480,0
2243,860,10,480,0
2244,860,10,480,0
2245,860,10,480,0
2246,860,10,480,0
2247,870,0,490,0
2248,870,0,490,0
2249,870,10,490,0
2250,870,0,490,0
2251,870,10,500,0
2252,860,10,490,0
2253,850,0,480,0
2254,850,20,490,0
2255,850,0,500,0
2256,870,0,500,0
2257,850,20,530,0
2258,860,0,510,0
2259,840,20,530,0
2260,850,-10,520,0
2261,870,20,530,0
2262,800,-10,560,0
2263,850,20,530,0
2264,790,20,580,0
2265,820,50,580,0
2266,800,-20,590,0
2267,870,10,520,0
2268,840,10,510,0
2269,850,0,540,0
2270,850,0,530,0
2271,850,20,520,0
2272,850,10,520,0
2273,850,0,530,0
2274,850,10,530,0
2275,850,0,530,3
2276,850,10,530,3
2277,850,10,520,3
2278,850,10,530,3
2279,850,10,530,3
2280,850,10,530,3
2281,850,10,540,3
2282,850,10,530,3
2283,850,10,530,3
2284,850,10,520,3
2285,850,10,520,3
2286,850,10,520,3
2287,850,10,530,3
2288,850,10,520,3
2289,860,10,530,3
2290,850,10,520,3
2291,850,0,530,3
2292,850,40,540,3
2293,860,10,580,3
2294,850,0,720,3
2295,860,-60,1090,3
2296,1130,-120,1680,3
2297,1420,-120,1950,3
2298,2040,-250,1860,3
2299,1960,-200,1300,3
2300,1570,30,930,3
2301,1190,120,470,3
2302,530,380,-60,3
2303,-50,400,-390,3
2304,-160,360,-680,3
2305,-410,350,-800,3
2306,-410,420,-750,3
2307,-50,510,-600,3
2308,100,600,-280,3
2309,820,500,400,3
2310,1280,840,1200,3
2311,1950,860,1650,3
2312,2240,1050,2850,3
2313,1530,1250,3450,3
2314,1320,970,2610,3
2315,1330,850,1620,3
2316,1820,680,1260,3
2317,1570,490,1100,3
2318,630,570,670,3
2319,830,740,250,3
2320,230,470,-680,3
2321,100,-10,-1030,3
2322,-90,-30,-1020,3
2323,-300,0,-930,3
2324,-210,100,-800,3
2325,-180,230,-580,3
2326,200,520,-140,3
2327,510,520,740,3
2328,1290,920,1000,3
2329,1520,1090,1900,3
2330,1410,1390,2850,3
2331,840,1480,3480,3
2332,540,1470,2940,3
2333,840,1230,2150,3
2334,1510,1010,1900,3
2335,1830,780,1570,3
2336,1160,690,940,3
2337,600,940,190,3
2338,480,750,-460,3
2339,-300,90,-950,3
2340,-140,-40,-910,3
2341,-530,-160,-870,3
2342,-440,-100,-690,3
2343,-410,10,-570,3
2344,-360,100,-440,3
2345,40,160,-130,3
2346,650,60,590,3
2347,1090,90,1290,3
2348,1040,180,1490,3
2349,1340,50,1720,3
2350,1120,150,1680,3
2351,1030,230,1760,3
2352,760,260,1580,3
2353,700,210,1320,3
2354,670,250,990,3
2355,690,230,900,3
2356,720,210,830,3
2357,690,150,750,3
2358,670,110,670,3
2359,710,100,640,3
2360,740,70,600,3
2361,750,70,650,3
2362,800,50,650,3
2363,730,60,650,3
2364,760,40,660,3
2365,760,40,650,3
2366,740,80,690,3
2367,770,80,660,3
2368,760,90,660,3
2369,790,60,620,3
2370,770,60,610,3
2371,750,70,630,3
2372,750,70,640,3
2373,750,80,650,3
2374,770,60,660,3
2375,730,70,670,3
2376,770,50,680,3
2377,730,70,650,3
2378,770,20,640,3
2379,710,100,630,3
2380,750,100,670,3
2381,790,70,640,3
2382,750,70,670,3
2383,740,60,660,3
2384,730,80,620,3
2385,790,10,630,3
2386,770,110,660,3
2387,770,70,690,3
2388,750,100,660,3
2389,750,60,670,3
2390,810,100,620,3
2391,780,60,590,3
2392,750,60,610,3
2393,720,80,580,3
2394,810,50,590,3
2395,770,70,600,3
2396,800,60,600,3
2397,780,70,610,3
2398,760,70,610,3
2399,800,50,620,3
2400,800,70,610,0
2401,800,70,600,0
2402,790,70,600,0
2403,790,70,600,0
2404,790,60,600,0
2405,790,50,590,0
2406,780,50,600,0
2407,800,50,600,0
2408,800,50,600,0
2409,800,40,600,0
2410,780,40,600,0
2411,790,40,600,0
2412,790,40,600,0
2413,780,40,590,0
2414,790,30,590,0
2415,800,40,590,0
2416,790,30,590,0
2417,810,30,600,0
2418,800,30,600,0
2419,800,40,600,0
2420,800,30,600,0
2421,800,30,600,0
2422,790,30,600,0
2423,820,40,600,0
2424,800,40,590,0
2425,780,30,590,0
2426,790,30,590,0
2427,800,40,590,0
2428,800,40,600,0
2429,800,30,590,0
2430,790,30,590,0
2431,800,30,590,0
2432,810,30,590,0
2433,800,40,590,0
2434,800,40,590,0
2435,800,30,590,0
2436,800,30,590,0
2437,790,40,590,0
2438,810,40,590,0
2439,810,30,590,0
2440,800,30,590,0
2441,800,30,600,0
2442,800,40,590,0
2443,800,40,590,0
2444,810,40,590,0
2445,800,30,590,0
2446,790,30,590,0
2447,800,30,600,0
2448,800,30,600,0
2449,790,40,590,0
2450,800,30,600,0
2451,790,40,600,0
2452,790,40,600,0
2453,790,30,590,0
2454,790,40,600,0
2455,780,30,600,0
2456,790,40,600,0
2457,790,30,600,0
2458,790,40,610,0
2459,780,40,600,0
2460,790,30,600,0
2461,780,40,600,0
2462,790,30,600,0
2463,790,40,600,0
2464,780,30,600,0
2465,780,30,600,0
2466,780,30,600,0
2467,780,30,600,0
2468,790,30,600,0
2469,790,30,600,0
2470,780,30,610,0
2471,790,30,610,0
2472,780,20,610,0
2473,780,30,600,0
2474,790,30,600,0
2475,790,30,600,0
2476,780,30,600,0
2477,780,20,610,0
2478,780,30,610,0
2479,780,30,610,0
2480,780,30,610,0
2481,780,30,610,0
2482,770,30,610,0
2483,780,20,610,0
2484,780,30,600,0
2485,780,30,610,0
2486,780,20,610,0
2487,770,20,610,0
2488,770,20,610,0
2489,780,30,600,0
2490,790,30,590,0
2491,770,30,590,0
2492,770,20,600,0
2493,790,50,590,0
2494,780,30,590,0
2495,850,50,630,0
2496,800,70,600,0
2497,830,50,600,0
2498,800,40,590,0
2499,830,30,590,0
2500,810,30,580,0
2501,800,40,590,0
2502,820,50,580,0
2503,830,60,580,0
2504,820,50,570,0
2505,810,40,570,0
2506,820,50,580,0
2507,820,50,580,0
2508,810,30,580,0
2509,810,30,580,0
2510,830,40,580,0
2511,820,40,580,0
2512,820,30,580,0
2513,840,30,580,0
2514,820,20,570,0
2515,820,30,570,0
2516,840,50,580,0
2517,830,60,580,0
2518,810,60,580,0
2519,820,80,580,0
2520,800,70,590,0
2521,820,60,600,0
2522,780,50,590,0
2523,780,40,550,0
2524,810,40,560,0
2525,830,20,590,0
2526,810,30,590,0
2527,830,40,590,0
2528,820,40,590,0
2529,800,50,590,0
2530,800,40,590,0
2531,840,40,580,0
2532,800,40,580,0
2533,800,30,590,0
2534,810,40,600,0
2535,810,20,590,0
2536,780,40,590,0
2537,770,30,610,0
2538,780,40,620,0
2539,770,30,620,0
2540,800,10,630,0
2541,730,60,610,0
2542,810,0,640,0
2543,710,50,650,0
2544,750,50,670,0
2545,770,40,670,0
2546,750,50,670,0
2547,770,0,630,0
2548,770,30,660,0
2549,780,60,620,0
2550,770,30,610,0
2551,720,40,590,0
2552,780,50,590,0
2553,800,40,610,0
2554,770,40,620,0
2555,790,40,610,0
2556,760,50,600,0
2557,800,40,600,0
2558,800,30,610,0
2559,800,30,600,0
2560,790,30,610,0
2561,790,40,600,0
2562,790,40,600,0
2563,790,40,600,0
2564,780,30,600,0
2565,770,40,600,0
2566,800,30,610,0
2567,790,40,600,0
2568,780,40,600,0
2569,770,40,600,0
2570,780,40,600,0
2571,780,40,600,0
2572,780,40,600,0
2573,790,50,600,0
2574,780,50,600,0
2575,780,40,600,3
2576,790,50,600,3
2577,780,50,600,3
2578,780,50,600,3
2579,770,50,600,3
2580,790,50,600,3
2581,790,50,600,3
2582,780,40,600,3
2583,800,40,600,3
2584,800,50,600,3
2585,780,50,600,3
2586,780,50,600,3
2587,780,60,600,3
2588,800,50,600,3
2589,800,50,600,3
2590,780,40,600,3
2591,770,40,600,3
2592,770,40,600,3
2593,730,20,660,3
2594,720,-40,870,3
2595,750,-40,1300,3
2596,1220,210,1680,3
2597,1910,440,1770,3
2598,1680,940,1480,3
2599,1740,1070,1010,3
2600,1560,1190,540,3
2601,700,1390,-180,3
2602,380,1500,-430,3
2603,0,1300,-670,3
2604,-90,800,-1140,3
2605,-10,170,-1430,3
2606,390,-590,-1520,3
2607,570,-1310,-1720,3
2608,700,-1910,-1920,3
2609,760,-2200,-2050,3
2610,760,-1820,-1960,3
2611,670,-1290,-1700,3
2612,570,-720,-1510,3
2613,400,-230,-1390,3
2614,380,410,-1050,3
2615,210,930,-930,3
2616,180,1380,-610,3
2617,-70,1370,-480,3
2618,660,1410,90,3
2619,1000,1060,270,3
2620,1810,1410,1030,3
2621,1830,1350,1710,3
2622,1400,1440,2670,3
2623,1030,1220,2720,3
2624,840,1050,2190,3
2625,1350,990,1570,3
2626,1410,980,1220,3
2627,1510,1060,960,3
2628,1010,1120,130,3
2629,740,1260,10,3
2630,360,1410,-730,3
2631,-220,1000,-750,3
2632,-280,480,-1530,3
2633,-510,-260,-1550,3
2634,120,-1130,-1490,3
2635,270,-1720,-1470,3
2636,360,-2120,-1480,3
2637,290,-1840,-1620,3
2638,310,-1260,-1430,3
2639,250,-760,-1110,3
2640,210,-290,-870,3
2641,200,140,-670,3
2642,280,490,-500,3
2643,140,700,-520,3
2644,860,970,450,3
2645,830,560,950,3
2646,1170,730,1550,3
2647,1380,490,1570,3
2648,850,480,1300,3
2649,1120,280,1130,3
2650,700,120,930,3
2651,760,30,790,3
2652,700,20,600,3
2653,620,40,540,3
2654,900,90,590,3
2655,840,60,610,3
2656,840,10,610,3
2657,690,50,590,3
2658,830,100,570,3
2659,850,90,530,3
2660,860,100,550,3
2661,840,90,540,3
2662,840,70,520,3
2663,850,60,520,3
2664,840,100,540,3
2665,850,80,540,3
2666,860,90,530,3
2667,840,110,520,3
2668,850,70,540,3
2669,840,90,520,3
2670,810,80,560,3
2671,850,70,550,3
2672,850,90,530,3
2673,840,20,490,3
2674,810,140,490,3
2675,850,90,580,3
2676,870,80,600,3
2677,830,40,610,3
2678,810,90,500,3
2679,780,70,440,3
2680,840,130,540,3
2681,850,70,630,3
2682,840,100,600,3
2683,840,80,580,3
2684,870,90,570,3
2685,790,140,540,3
2686,800,100,510,3
2687,860,150,520,3
2688,820,100,490,3
2689,830,80,510,3
2690,850,70,550,3
2691,800,70,560,3
2692,850,90,580,3
2693,850,90,550,3
2694,860,100,530,3
2695,850,100,520,3
2696,860,100,510,3
2697,850,110,520,3
2698,840,100,520,3
2699,830,100,520,3
2700,830,80,530,0
2701,850,60,520,0
2702,850,50,530,0
2703,850,50,530,0
2704,850,50,520,0
2705,850,70,520,0
2706,850,80,510,0
2707,850,90,530,0
2708,840,90,530,0
2709,820,60,510,0
2710,850,50,520,0
2711,850,50,520,0
2712,840,50,520,0
2713,860,70,510,0
2714,900,80,500,0
2715,880,80,520,0
2716,850,80,520,0
2717,850,90,530,0
2718,850,90,540,0
2719,840,100,510,0
2720,840,100,520,0
2721,850,100,510,0
2722,850,70,520,0
2723,840,50,520,0
2724,810,40,500,0
2725,850,40,510,0
2726,870,60,530,0
2727,840,90,510,0
2728,860,90,520,0
2729,860,60,520,0
2730,850,80,510,0
2731,840,70,520,0
2732,850,70,530,0
2733,850,80,520,0
2734,850,50,520,0
2735,840,70,530,0
2736,850,70,540,0
2737,840,50,540,0
2738,840,70,530,0
2739,850,70,540,0
2740,840,70,540,0
2741,840,80,550,0
2742,840,70,550,0
2743,820,80,570,0
2744,830,50,560,0
2745,820,100,580,0
2746,810,50,570,0
2747,810,100,580,0
2748,830,50,590,0
2749,770,110,590,0
2750,870,40,590,0
2751,750,110,600,0
2752,810,80,620,0
2753,780,90,630,0
2754,780,40,590,0
2755,780,50,530,0
2756,790,80,530,0
2757,820,90,580,0
2758,670,40,560,0
2759,820,100,570,0
2760,850,90,560,0
2761,840,60,560,0
2762,850,60,570,0
2763,820,70,570,0
2764,840,90,570,0
2765,830,90,560,0
2766,820,100,540,0
2767,840,100,550,0
2768,810,90,540,0
2769,830,100,550,0
2770,840,90,550,0
2771,820,100,550,0
2772,840,100,550,0
2773,820,100,550,0
2774,830,100,550,0
2775,840,110,560,3
2776,830,110,560,3
2777,830,110,570,3
2778,810,110,550,3
2779,820,110,550,3
2780,820,110,550,3
2781,810,110,540,3
2782,830,110,550,3
2783,810,110,560,3
2784,830,110,570,3
2785,820,110,570,3
2786,830,120,570,3
2787,810,130,560,3
2788,830,130,550,3
2789,820,140,560,3
2790,810,160,560,3
2791,810,160,560,3
2792,830,150,570,3
2793,820,150,580,3
2794,800,130,560,3
2795,790,120,580,3
2796,800,130,610,3
2797,830,110,750,3
2798,840,60,1000,3
2799,920,-10,1310,3
2800,1110,-120,1570,3
2801,1070,-120,1640,3
2802,1420,-160,1650,3
2803,1270,-150,1390,3
2804,1260,-30,1150,3
2805,1070,200,770,3
2806,520,330,340,3
2807,310,420,140,3
2808,90,350,-20,3
2809,-240,-10,20,3
2810,-180,-240,220,3
2811,-450,-300,400,3
2812,-280,-270,530,3
2813,-340,-130,590,3
2814,-260,-130,660,3
2815,-200,20,560,3
2816,-20,120,580,3
2817,50,160,520,3
2818,190,270,660,3
2819,310,280,770,3
2820,690,290,800,3
2821,960,230,1070,3
2822,900,100,1240,3
2823,950,-30,1440,3
2824,1280,-320,1360,3
2825,1370,-250,1320,3
2826,970,-250,1210,3
2827,710,-90,1190,3
2828,670,-30,1010,3
2829,560,90,860,3
2830,720,140,750,3
2831,640,230,750,3
2832,610,240,760,3
2833,590,250,740,3
2834,630,240,740,3
2835,600,230,740,3
2836,580,230,760,3
2837,590,220,770,3
2838,610,200,780,3
2839,620,170,760,3
2840,590,180,750,3
2841,640,180,760,3
2842,650,210,740,3
2843,660,200,740,3
2844,650,190,720,3
2845,640,210,740,3
2846,660,190,750,3
2847,660,190,760,3
2848,670,190,740,3
2849,660,190,740,3
2850,630,180,750,3
2851,600,190,720,3
2852,640,200,750,3
2853,630,180,770,3
2854,650,180,770,3
2855,640,200,750,3
2856,600,210,740,3
2857,640,210,790,3
2858,640,220,830,3
2859,640,120,720,3
2860,590,250,730,3
2861,630,170,730,3
2862,590,200,740,3
2863,640,220,740,3
2864,590,230,770,3
2865,670,210,810,3
2866,690,210,780,3
2867,610,230,720,3
2868,650,230,730,3
2869,610,230,730,3
2870,670,200,690,3
2871,640,230,710,3
2872,650,220,720,3
2873,660,230,710,3
2874,660,230,730,3
2875,670,230,740,0
2876,660,220,730,0
2877,660,230,740,0
2878,670,230,730,0
2879,620,230,720,0
2880,670,230,730,0
2881,640,230,720,0
2882,650,230,720,0
2883,660,230,730,0
2884,630,230,730,0
2885,660,230,740,0
2886,650,230,730,0
2887,650,230,730,0
2888,660,220,740,0
2889,660,230,730,0
2890,650,220,730,0
2891,630,230,720,0
2892,650,220,710,0
2893,650,220,710,0
2894,660,220,720,0
2895,670,210,720,0
2896,660,210,710,0
2897,680,210,740,0
2898,650,200,740,0
2899,540,270,750,0
2900,640,250,710,0
2901,660,210,680,0
2902,660,190,680,0
2903,680,160,700,0
2904,700,130,700,0
2905,710,120,690,0
2906,750,110,710,0
2907,720,110,710,0
2908,750,120,690,0
2909,740,150,700,0
2910,740,200,710,0
2911,750,220,670,0
2912,770,240,680,0
2913,750,270,670,0
2914,730,270,660,0
2915,740,260,650,0
2916,730,240,610,0
2917,730,220,600,0
2918,730,210,600,0
2919,730,210,600,0
2920,730,200,610,0
2921,720,200,600,0
2922,740,200,620,0
2923,750,190,620,0
2924,730,180,610,0
2925,770,130,600,0
2926,760,110,580,0
2927,710,130,570,0
2928,730,110,580,0
2929,750,110,600,0
2930,720,120,630,0
2931,720,110,700,0
2932,770,60,710,0
2933,780,60,730,0
2934,750,40,730,0
2935,730,30,720,0
2936,700,50,740,0
2937,690,30,770,0
2938,680,20,780,0
2939,650,10,800,0
2940,660,0,800,0
2941,620,10,800,0
2942,610,10,790,0
2943,630,10,780,0
2944,650,0,760,0
2945,680,0,750,0
2946,710,0,750,0
2947,690,0,740,0
2948,690,0,750,0
2949,690,-10,740,0
2950,680,-10,730,0
2951,700,-20,730,0
2952,710,-20,740,0
2953,700,-10,740,0
2954,710,-10,730,0
2955,710,-10,740,0
2956,710,-10,730,0
2957,700,-10,720,0
2958,710,-20,720,0
2959,710,-20,720,0
2960,690,-20,710,0
2961,700,-10,710,0
2962,700,-30,740,0
2963,670,-30,750,0
2964,680,-20,740,0
2965,690,-20,740,0
2966,700,0,700,0
2967,720,10,710,0
2968,730,20,670,0
2969,730,20,690,0
2970,740,20,710,0
2971,730,20,680,0
2972,730,20,690,0
2973,740,40,680,0
2974,790,50,730,0
2975,760,80,720,0
2976,740,100,680,0
2977,730,110,680,0
2978,740,90,650,0
2979,740,70,660,0
2980,760,70,640,0
2981,770,100,630,0
2982,750,110,620,0
2983,740,100,660,0
2984,760,80,630,0
2985,740,100,640,0
2986,750,100,620,0
2987,760,80,610,0
2988,780,70,610,0
2989,810,80,600,0
2990,790,40,600,0
2991,780,60,600,0
2992,810,50,580,0
2993,840,60,590,0
2994,820,80,580,0
2995,830,60,560,0
2996,820,90,550,0
2997,830,100,530,0
2998,840,100,520,0
2999,850,90,530,0
