sequence,accelx,accely,accelz,event
0,520,-50,850,0
1,520,-50,860,0
2,520,-50,860,0
3,530,-40,870,0
4,530,-50,870,0
5,530,-50,860,0
6,520,-50,850,0
7,530,-40,860,0
8,530,-40,850,0
9,530,-40,850,0
10,520,-40,850,0
11,520,-40,850,0
12,520,-40,860,0
13,530,-40,860,0
14,530,-40,870,0
15,520,-50,850,0
16,520,-50,850,0
17,520,-40,850,0
18,530,-40,860,0
19,530,-40,860,0
20,530,-40,860,0
21,520,-40,860,0
22,530,-40,860,0
23,530,-40,870,0
24,530,-40,870,0
25,520,-40,870,0
26,530,-30,860,0
27,510,-20,840,0
28,520,-20,840,0
29,510,-20,840,0
30,520,-30,850,0
31,510,-40,850,0
32,510,-40,860,0
33,510,-40,860,0
34,510,-30,870,0
35,520,-30,870,0
36,520,-30,860,0
37,520,-30,870,0
38,520,-30,860,0
39,520,-30,860,0
40,520,-40,860,0
41,530,-30,860,0
42,520,-40,850,0
43,520,-30,860,0
44,520,-30,860,0
45,520,-30,860,0
46,520,-40,860,0
47,520,-40,860,0
48,520,-40,860,0
49,520,-30,860,0
50,520,-30,860,0
51,520,-30,850,0
52,520,-30,860,0
53,510,-30,860,0
54,510,-30,860,0
55,510,-30,860,0
56,510,-30,870,0
57,510,-40,860,0
58,510,-40,860,0
59,500,-50,860,0
60,510,-40,870,0
61,510,-40,860,0
62,490,-40,860,0
63,470,-30,870,0
64,490,-30,870,0
65,490,-50,870,0
66,500,-30,880,0
67,470,-50,880,0
68,460,-40,870,0
69,490,-40,890,0
70,460,-30,880,0
71,500,-40,880,0
72,460,-20,880,0
73,470,-20,880,0
74,460,-40,890,0
75,460,-30,870,0
76,460,-50,900,0
77,460,-30,890,0
78,460,-30,900,0
79,460,-20,900,0
80,460,-40,920,0
81,460,-60,920,0
82,510,-20,860,0
83,490,-30,830,0
84,480,-40,860,0
85,500,-40,850,0
86,520,-40,860,0
87,510,-40,860,0
88,520,-30,870,0
89,520,-30,860,0
90,520,-30,860,0
91,520,-40,870,0
92,510,-30,860,0
93,520,-30,860,0
94,530,-30,860,0
95,530,-30,850,0
96,520,-30,850,0
97,520,-30,850,0
98,520,-30,860,0
99,520,-40,860,0
100,530,-40,850,2000
101,520,-30,860,2000
102,530,-30,860,2000
103,520,-40,860,2000
104,520,-40,850,2000
105,530,-40,860,2000
106,520,-40,850,2000
107,520,-30,850,2000
108,520,-40,850,2000
109,520,-40,850,2000
110,530,-40,860,2000
111,530,-40,860,2000
112,520,-40,850,2000
113,530,-40,860,2000
114,530,-40,850,2000
115,530,-30,850,2000
116,520,-40,850,2000
117,540,-30,860,2000
118,530,-40,870,2000
119,550,-50,870,2000
120,550,-50,960,2000
121,550,-90,930,2000
122,550,-60,970,2000
123,510,-110,1070,2000
124,560,-170,1180,2000
125,600,-260,1310,2000
126,710,-320,1300,2000
127,680,-350,1240,2000
128,710,-400,1170,2000
129,480,-400,1030,2000
130,480,-340,870,2000
131,460,-250,640,2000
132,180,-70,450,2000
133,70,10,370,2000
134,-10,140,320,2000
135,-110,230,260,2000
136,-170,170,260,2000
137,60,260,470,2000
138,170,260,550,2000
139,750,370,870,2000
140,860,360,760,2000
141,1220,240,750,2000
142,1410,130,930,2000
143,1340,10,880,2000
144,1550,-210,1060,2000
145,1010,-100,1090,2000
146,1240,10,1430,2000
147,990,220,1680,2000
148,1230,430,1710,2000
149,1440,500,1530,2000
150,1220,450,1180,2000
151,1150,280,830,2000
152,690,30,450,2000
153,360,-130,310,2000
154,150,-250,70,2000
155,0,-320,0,2000
156,-90,-390,-100,2000
157,-100,-430,-230,2000
158,-90,-440,-350,2000
159,70,-500,-340,2000
160,220,-320,-330,2000
161,580,-350,-20,2000
162,660,-30,260,2000
163,1040,-30,840,2000
164,1140,220,1240,2000
165,1320,110,1380,2000
166,1260,240,1460,2000
167,1100,250,1400,2000
168,920,230,1200,2000
169,710,190,1040,2000
170,800,70,830,2000
171,730,10,600,2000
172,750,-50,490,2000
173,760,-70,510,2000
174,780,-60,570,2000
175,840,-60,610,2000
176,770,-60,600,2000
177,840,-60,600,2000
178,820,-60,580,2000
179,830,-50,590,2000
180,830,-40,600,2000
181,790,-40,590,2000
182,810,-50,590,2000
183,810,-30,580,2000
184,810,-50,590,2000
185,840,-50,590,2000
186,810,-60,580,2000
187,780,-50,580,2000
188,780,-50,570,2000
189,810,-40,590,2000
190,830,-40,590,2000
191,740,-10,610,2000
192,800,-20,630,2000
193,770,-10,680,2000
194,800,-40,620,2000
195,780,-40,610,2000
196,760,-50,660,2000
197,730,50,690,2000
198,780,-40,630,2000
199,740,-20,540,2000
200,770,-130,570,2000
201,760,70,620,2000
202,740,40,700,2000
203,750,50,730,2000
204,850,-140,660,2000
205,740,-20,610,2000
206,780,-40,610,2000
207,760,-10,600,2000
208,770,-20,590,2000
209,780,-10,600,2000
210,780,-40,620,2000
211,780,-30,630,2000
212,770,-40,610,2000
213,780,-20,610,2000
214,790,-20,620,2000
215,770,-20,610,2000
216,780,-30,600,2000
217,780,-30,610,2000
218,790,-20,610,2000
219,780,-20,610,2000
220,790,-30,610,2000
221,780,-20,600,2000
222,780,-20,600,2000
223,800,-20,610,2000
224,780,-20,600,2000
225,770,-20,600,0
226,780,-20,600,0
227,780,-30,610,0
228,780,-30,610,0
229,790,-30,600,0
230,790,-30,600,0
231,780,-30,600,0
232,780,-30,600,0
233,790,-30,600,0
234,790,-40,600,0
235,790,-30,600,0
236,790,-30,610,0
237,800,-40,600,0
238,790,-40,600,0
239,790,-30,600,0
240,790,-20,600,0
241,780,-30,590,0
242,780,-30,600,0
243,800,-30,600,0
244,780,-40,600,0
245,790,-30,600,0
246,790,-30,600,0
247,790,-40,600,0
248,790,-30,600,0
249,790,-30,600,0
250,780,-30,600,0
251,780,-30,590,0
252,790,-30,600,0
253,790,-30,600,0
254,790,-40,610,0
255,780,-40,600,0
256,790,-30,600,0
257,800,-30,600,0
258,780,-30,600,0
259,780,-30,590,0
260,790,-30,600,0
261,780,-40,600,0
262,780,-30,600,0
263,790,-30,600,0
264,790,-30,600,0
265,780,-40,600,0
266,790,-40,600,0
267,790,-30,600,0
268,780,-30,600,0
269,790,-30,600,0
270,790,-30,600,0
271,790,-30,600,0
272,790,-40,600,0
273,780,-30,600,0
274,800,-30,600,0
275,780,-30,600,0
276,780,-30,600,0
277,780,-30,600,0
278,790,-30,600,0
279,790,-30,600,0
280,790,-30,600,0
281,780,-30,600,0
282,790,-30,600,0
283,790,-30,600,0
284,790,-30,600,0
285,790,-30,600,0
286,790,-30,600,0
287,780,-30,600,0
288,800,-30,600,0
289,800,-30,600,0
290,790,-40,600,0
291,780,-30,600,0
292,800,-30,600,0
293,790,-30,590,0
294,790,-30,600,0
295,780,-40,600,0
296,790,-30,600,0
297,790,-40,610,0
298,780,-40,600,0
299,790,-30,600,0
300,780,-30,600,0
301,770,-30,600,0
302,780,-40,590,0
303,780,-30,600,0
304,790,-20,620,0
305,780,-30,610,0
306,780,-30,600,0
307,780,-30,610,0
308,780,-40,610,0
309,780,-30,610,0
310,790,-30,600,0
311,780,-30,610,0
312,770,-40,610,0
313,780,-10,620,0
314,770,-30,640,0
315,770,-20,620,0
316,730,0,640,0
317,790,-30,660,0
318,800,-60,590,0
319,760,-30,620,0
320,740,0,680,0
321,760,20,710,0
322,760,-80,630,0
323,780,0,600,0
324,770,-40,590,0
325,770,-30,600,0
326,780,-40,600,0
327,790,-30,590,0
328,810,-40,600,0
329,800,-40,600,0
330,790,-40,610,0
331,790,-40,600,0
332,790,-40,600,0
333,790,-30,600,0
334,790,-30,600,0
335,790,-20,600,0
336,780,-20,600,0
337,790,-20,600,0
338,790,-30,600,0
339,790,-30,600,0
340,790,-30,600,0
341,790,-30,600,0
342,780,-40,600,0
343,780,-30,600,0
344,800,-30,600,0
345,790,-40,600,0
346,780,-30,600,0
347,800,-30,600,0
348,790,-20,600,0
349,780,-30,600,0
350,790,-30,600,2000
351,800,-30,600,2000
352,790,-30,600,2000
353,790,-40,600,2000
354,790,-30,600,2000
355,800,-30,600,2000
356,780,-30,600,2000
357,790,-30,600,2000
358,800,-30,600,2000
359,790,-40,600,2000
360,780,-40,590,2000
361,790,-40,590,2000
362,800,-30,600,2000
363,800,-40,600,2000
364,790,-40,600,2000
365,780,-30,590,2000
366,800,-30,590,2000
367,800,-40,590,2000
368,790,-30,600,2000
369,790,-40,630,2000
370,850,-20,690,2000
371,850,-30,740,2000
372,750,-40,870,2000
373,930,-130,1050,2000
374,1050,-270,1290,2000
375,1150,-320,1460,2000
376,1370,-390,1250,2000
377,1290,-370,860,2000
378,970,-320,520,2000
379,650,-290,300,2000
380,280,-160,190,2000
381,-60,0,120,2000
382,-310,110,100,2000
383,-360,220,130,2000
384,-290,260,230,2000
385,-160,340,400,2000
386,180,470,510,2000
387,670,480,640,2000
388,1150,400,790,2000
389,1180,400,830,2000
390,1600,150,760,2000
391,1600,10,930,2000
392,1540,-110,980,2000
393,1540,-230,1180,2000
394,1000,-30,1340,2000
395,1070,230,1400,2000
396,1180,440,1430,2000
397,1430,570,1350,2000
398,1480,600,1380,2000
399,1250,480,1070,2000
400,950,280,690,2000
401,550,-10,350,2000
402,120,-230,30,2000
403,240,-290,-10,2000
404,-40,-420,-120,2000
405,-80,-480,-200,2000
406,-70,-580,-270,2000
407,-150,-570,-370,2000
408,-30,-600,-370,2000
409,100,-450,-330,2000
410,330,-370,-170,2000
411,580,-80,100,2000
412,750,-80,490,2000
413,990,110,890,2000
414,1000,180,1040,2000
415,1270,260,1290,2000
416,1180,430,1340,2000
417,1350,360,1320,2000
418,980,390,1170,2000
419,870,290,980,2000
420,830,220,800,2000
421,820,100,600,2000
422,860,50,560,2000
423,850,10,540,2000
424,880,10,550,2000
425,860,20,550,2000
426,860,20,530,2000
427,830,10,470,2000
428,820,10,470,2000
429,880,0,480,2000
430,880,10,490,2000
431,860,-10,490,2000
432,860,-10,500,2000
433,880,0,510,2000
434,850,0,520,2000
435,850,10,510,2000
436,860,-10,510,2000
437,850,30,530,2000
438,850,-10,500,2000
439,820,-10,480,2000
440,810,50,500,2000
441,820,70,560,2000
442,840,20,610,2000
443,860,20,660,2000
444,850,-40,640,2000
445,810,0,490,2000
446,770,-20,480,2000
447,830,50,520,2000
448,810,30,590,2000
449,830,20,530,2000
450,810,30,590,2000
451,820,30,650,2000
452,860,0,620,2000
453,810,0,520,2000
454,800,10,510,2000
455,820,20,540,2000
456,850,10,560,2000
457,840,20,550,2000
458,840,0,560,2000
459,850,0,560,2000
460,840,10,550,2000
461,840,0,540,2000
462,840,0,540,2000
463,840,0,550,2000
464,830,0,540,2000
465,850,0,540,2000
466,850,0,550,2000
467,840,0,560,2000
468,840,10,540,2000
469,850,10,530,2000
470,830,10,540,2000
471,850,10,540,2000
472,840,0,540,2000
473,830,10,550,2000
474,840,0,550,2000
475,850,0,550,0
476,850,0,540,0
477,840,10,540,0
478,840,0,540,0
479,850,0,550,0
480,850,0,550,0
481,840,0,540,0
482,850,10,540,0
483,850,0,550,0
484,850,0,540,0
485,850,10,540,0
486,850,0,540,0
487,840,0,540,0
488,840,0,540,0
489,850,0,540,0
490,850,0,540,0
491,840,0,540,0
492,850,0,540,0
493,850,0,540,0
494,840,0,540,0
495,840,10,540,0
496,850,0,540,0
497,840,0,540,0
498,850,0,540,0
499,850,0,550,0
500,850,0,550,0
501,840,0,540,0
502,850,0,530,0
503,850,0,540,0
504,850,0,540,0
505,850,0,540,0
506,850,0,540,0
507,840,0,550,0
508,850,0,540,0
509,850,0,540,0
510,850,0,540,0
511,840,0,540,0
512,840,0,540,0
513,850,0,540,0
514,850,0,540,0
515,840,0,550,0
516,840,-10,540,0
517,840,-10,540,0
518,840,0,540,0
519,850,0,540,0
520,840,0,550,0
521,840,0,540,0
522,850,0,540,0
523,850,0,540,0
524,840,0,540,0
525,850,0,540,0
526,850,0,540,0
527,840,0,540,0
528,840,0,540,0
529,840,0,540,0
530,850,0,540,0
531,840,0,540,0
532,840,0,540,0
533,850,-10,540,0
534,840,-10,540,0
535,850,0,540,0
536,850,0,540,0
537,840,0,540,0
538,840,0,540,0
539,840,0,540,0
540,840,0,540,0
541,850,0,540,0
542,850,0,540,0
543,850,0,540,0
544,840,-10,540,0
545,840,0,530,0
546,850,0,540,0
547,850,0,540,0
548,840,0,540,0
549,850,0,540,0
550,850,0,540,0
551,840,-10,540,0
552,840,0,540,0
553,850,0,540,0
554,840,-10,530,0
555,840,0,530,0
556,850,0,540,0
557,850,-10,550,0
558,840,-10,550,0
559,850,0,540,0
560,850,0,540,0
561,830,-10,540,0
562,840,0,530,0
563,850,0,540,0
564,840,-10,550,0
565,840,0,540,0
566,850,-10,540,0
567,850,0,540,0
568,840,-10,540,0
569,850,0,530,0
570,850,0,540,0
571,850,0,540,0
572,850,0,540,0
573,840,0,540,0
574,850,0,540,0
575,850,-10,550,0
576,850,0,540,0
577,840,0,540,0
578,840,-10,540,0
579,840,0,540,0
580,850,0,530,0
581,840,-10,540,0
582,840,0,550,0
583,850,-10,560,0
584,840,0,550,0
585,830,-10,570,0
586,840,0,570,0
587,830,-10,540,0
588,810,0,550,0
589,810,10,540,0
590,820,30,580,0
591,790,-30,570,0
592,850,-10,580,0
593,830,-10,620,0
594,820,20,650,0
595,830,-20,550,0
596,820,0,480,0
597,790,0,520,0
598,820,-10,540,0
599,840,0,550,0
600,850,-10,540,0
601,840,-20,560,0
602,850,-10,570,0
603,850,-20,550,0
604,840,-10,550,0
605,850,-10,550,0
606,850,-10,540,0
607,840,0,540,0
608,830,-10,540,0
609,840,-10,540,0
610,850,-10,550,0
611,840,-10,550,0
612,840,-10,550,0
613,850,-10,550,0
614,840,-10,550,0
615,840,0,550,0
616,840,0,550,0
617,830,0,550,0
618,840,-10,550,0
619,840,-10,550,0
620,840,-10,540,0
621,840,-10,560,0
622,830,-10,550,0
623,840,-10,540,0
624,850,0,560,0
625,840,-10,550,2000
626,830,-10,540,2000
627,840,0,550,2000
628,840,-10,550,2000
629,840,-10,550,2000
630,840,-10,550,2000
631,850,-10,550,2000
632,840,-10,560,2000
633,830,-10,540,2000
634,840,-10,540,2000
635,840,-10,550,2000
636,840,-10,560,2000
637,840,-10,540,2000
638,840,-10,540,2000
639,850,-10,560,2000
640,840,-10,560,2000
641,830,0,540,2000
642,850,0,550,2000
643,850,20,620,2000
644,950,10,670,2000
645,880,20,800,2000
646,1000,-40,1040,2000
647,1120,-180,1350,2000
648,1310,-300,1410,2000
649,1550,-290,1140,2000
650,1390,-290,770,2000
651,970,-260,420,2000
652,680,-250,220,2000
653,240,-200,240,2000
654,-40,-50,280,2000
655,-170,100,280,2000
656,-330,130,240,2000
657,-290,210,260,2000
658,-150,320,360,2000
659,-90,480,420,2000
660,280,590,520,2000
661,750,780,730,2000
662,1370,780,640,2000
663,1680,490,740,2000
664,1580,230,840,2000
665,1680,70,620,2000
666,1870,-50,1100,2000
667,1290,120,1380,2000
668,1340,290,1730,2000
669,1260,560,1690,2000
670,1540,750,1500,2000
671,1540,790,1190,2000
672,1300,660,780,2000
673,810,360,450,2000
674,370,70,220,2000
675,40,-160,-20,2000
676,50,-270,-110,2000
677,-170,-340,-220,2000
678,-150,-400,-330,2000
679,-150,-420,-400,2000
680,-120,-430,-400,2000
681,60,-390,-390,2000
682,340,-210,-400,2000
683,810,-60,-70,2000
684,920,130,360,2000
685,1400,410,1180,2000
686,1340,470,1310,2000
687,1530,620,1550,2000
688,1330,640,1530,2000
689,1130,540,1480,2000
690,900,410,1230,2000
691,780,230,810,2000
692,810,120,460,2000
693,760,20,370,2000
694,800,-10,420,2000
695,780,10,480,2000
696,830,10,570,2000
697,860,30,590,2000
698,860,20,580,2000
699,860,20,540,2000
700,850,0,510,2000
701,850,0,510,2000
702,850,0,520,2000
703,850,10,510,2000
704,850,20,520,2000
705,850,10,520,2000
706,850,20,530,2000
707,850,10,540,2000
708,830,20,550,2000
709,850,0,540,2000
710,830,30,530,2000
711,850,20,560,2000
712,840,30,510,2000
713,780,60,620,2000
714,850,20,690,2000
715,810,80,660,2000
716,850,-70,520,2000
717,830,-20,470,2000
718,730,-20,550,2000
719,810,90,530,2000
720,770,90,650,2000
721,830,70,690,2000
722,840,-90,610,2000
723,810,30,530,2000
724,810,10,570,2000
725,790,0,580,0
726,830,10,570,0
727,820,10,570,0
728,820,10,570,0
729,810,0,580,0
730,820,10,570,0
731,830,0,580,0
732,810,0,580,0
733,820,10,570,0
734,830,10,570,0
735,830,0,580,0
736,830,0,580,0
737,820,0,580,0
738,820,-10,580,0
739,820,0,570,0
740,820,0,560,0
741,820,10,560,0
742,830,0,570,0
743,820,0,580,0
744,810,0,580,0
745,820,0,570,0
746,840,-10,570,0
747,820,0,570,0
748,830,0,570,0
749,820,0,570,0
750,820,0,570,0
751,840,0,570,0
752,820,0,560,0
753,810,0,570,0
754,830,0,580,0
755,820,0,570,0
756,820,0,570,0
757,830,0,570,0
758,830,-10,560,0
759,820,0,570,0
760,840,0,580,0
761,830,0,560,0
762,830,0,560,0
763,840,0,570,0
764,840,-10,570,0
765,830,0,570,0
766,820,-10,560,0
767,830,-10,560,0
768,830,-10,570,0
769,820,-10,570,0
770,820,-10,570,0
771,830,0,570,0
772,830,-10,560,0
773,830,-10,570,0
774,820,0,570,0
775,830,-10,570,0
776,830,-10,560,0
777,840,-10,560,0
778,830,-10,560,0
779,830,-10,550,0
780,830,0,560,0
781,840,-10,560,0
782,840,-10,570,0
783,850,-10,560,0
784,840,-10,550,0
785,830,-10,550,0
786,840,-10,550,0
787,840,-10,550,0
788,840,-10,550,0
789,840,-10,550,0
790,840,-10,550,0
791,840,-10,550,0
792,850,-10,550,0
793,850,-10,560,0
794,840,-20,570,0
795,840,-20,550,0
796,840,-20,540,0
797,840,-20,550,0
798,830,-20,550,0
799,830,-10,530,0
800,840,-10,550,0
801,830,-20,560,0
802,830,-20,550,0
803,850,-10,550,0
804,840,-10,560,0
805,830,-20,560,0
806,840,-10,550,0
807,840,-10,560,0
808,820,-10,560,0
809,820,-10,560,0
810,850,0,550,0
811,830,-10,560,0
812,830,-10,560,0
813,840,-10,560,0
814,840,-10,560,0
815,830,-10,560,0
816,840,-10,560,0
817,840,-10,560,0
818,830,-10,550,0
819,830,-10,550,0
820,840,-10,560,0
821,840,-10,550,0
822,840,-10,550,0
823,840,-10,560,0
824,840,-10,560,0
825,840,-10,550,0
826,840,-10,550,0
827,840,-10,550,0
828,830,-10,540,0
829,830,-10,550,0
830,840,-10,550,0
831,840,-20,550,0
832,840,-20,550,0
833,850,-10,550,0
834,850,-10,570,0
835,840,-20,570,0
836,830,-20,550,0
837,840,-10,540,0
838,830,-10,540,0
839,830,-10,550,0
840,840,-10,560,0
841,840,-10,560,0
842,840,-10,560,0
843,840,-10,560,0
844,840,-10,560,0
845,830,-10,560,0
846,830,-10,550,0
847,830,-10,550,0
848,830,-10,560,0
849,830,-10,560,0
850,830,-10,560,0
851,830,-10,560,0
852,830,-10,570,0
853,830,-10,570,0
854,830,-10,560,0
855,840,-10,550,0
856,820,-10,560,0
857,830,-20,560,0
858,840,-20,560,0
859,840,-20,560,0
860,830,-20,550,0
861,830,-20,560,0
862,830,-10,560,0
863,830,-20,560,0
864,830,-20,570,0
865,840,-10,560,0
866,840,-20,560,0
867,820,-10,560,0
868,840,-10,560,0
869,840,-10,570,0
870,840,-20,560,0
871,830,-10,560,0
872,840,-10,550,0
873,840,-10,560,0
874,830,-20,560,0
875,840,-10,560,0
876,830,-10,570,0
877,830,-10,570,0
878,840,-10,550,0
879,830,-10,560,0
880,830,-10,560,0
881,840,-20,560,0
882,840,-20,560,0
883,830,-20,560,0
884,830,-10,560,0
885,820,-10,560,0
886,840,-10,560,0
887,840,-10,570,0
888,830,-10,560,0
889,830,-10,560,0
890,840,-10,560,0
891,830,-10,560,0
892,830,-10,560,0
893,830,-20,560,0
894,830,-20,560,0
895,840,-20,570,0
896,840,-10,560,0
897,830,-10,560,0
898,830,-10,560,0
899,830,-20,560,0
900,830,-20,560,0
901,830,-10,570,0
902,830,-10,570,0
903,830,-20,560,0
904,820,-20,580,0
905,830,-20,570,0
906,820,-20,570,0
907,810,-10,570,0
908,820,0,580,0
909,820,-20,590,0
910,790,0,600,0
911,820,-20,590,0
912,800,0,590,0
913,780,-10,570,0
914,820,0,590,0
915,800,-10,600,0
916,790,-20,600,0
917,820,-40,600,0
918,810,-40,590,0
919,820,20,580,0
920,790,-10,570,0
921,820,0,540,0
922,810,-10,570,0
923,820,-20,570,0
924,830,-10,590,0
925,840,-10,570,0
926,820,-10,570,0
927,820,-10,560,0
928,830,-10,570,0
929,820,-10,570,0
930,830,-10,580,0
931,830,-10,570,0
932,820,-10,570,0
933,820,-10,570,0
934,820,-10,570,0
935,820,-10,570,0
936,830,-10,580,0
937,830,-10,570,0
938,830,-10,560,0
939,820,-20,580,0
940,830,-20,580,0
941,820,-10,570,0
942,820,-10,570,0
943,820,-10,560,0
944,810,-10,570,0
945,820,-10,570,0
946,830,-20,580,0
947,830,-10,580,0
948,820,-10,570,0
949,810,-10,570,0
950,820,-10,570,2000
951,830,-20,570,2000
952,810,-10,570,2000
953,830,-10,570,2000
954,820,-20,570,2000
955,820,-10,580,2000
956,820,-10,570,2000
957,820,-10,570,2000
958,820,-10,570,2000
959,820,-10,570,2000
960,820,-10,570,2000
961,820,-20,570,2000
962,820,-10,580,2000
963,830,-20,580,2000
964,830,-20,570,2000
965,820,-10,570,2000
966,820,-10,570,2000
967,820,-20,560,2000
968,830,-20,580,2000
969,830,-20,590,2000
970,840,-10,660,2000
971,900,-30,730,2000
972,840,0,920,2000
973,970,-50,1180,2000
974,1080,-220,1360,2000
975,1290,-290,1270,2000
976,1490,-330,1030,2000
977,1250,-300,760,2000
978,970,-290,510,2000
979,740,-260,280,2000
980,240,-210,190,2000
981,-40,-120,160,2000
982,-230,30,120,2000
983,-440,180,180,2000
984,-390,280,180,2000
985,-270,380,290,2000
986,20,500,280,2000
987,520,500,380,2000
988,980,580,490,2000
989,1580,480,810,2000
990,1600,360,950,2000
991,2040,30,940,2000
992,1750,0,1000,2000
993,1610,60,1180,2000
994,1360,180,1500,2000
995,1490,300,1500,2000
996,1530,460,1370,2000
997,1450,450,1180,2000
998,1210,320,790,2000
999,780,100,460,2000
1000,300,-100,220,2000
1001,300,-230,40,2000
1002,10,-370,-110,2000
1003,-110,-420,-210,2000
1004,-50,-440,-310,2000
1005,-210,-450,-390,2000
1006,-80,-460,-410,2000
1007,60,-350,-390,2000
1008,380,-130,-390,2000
1009,860,-80,-20,2000
1010,960,310,730,2000
1011,1380,290,1370,2000
1012,1270,430,1520,2000
1013,1290,430,1560,2000
1014,1220,380,1430,2000
1015,960,370,1310,2000
1016,830,250,1090,2000
1017,740,180,860,2000
1018,810,60,610,2000
1019,780,-10,540,2000
1020,780,-10,530,2000
1021,800,0,560,2000
1022,830,0,560,2000
1023,840,-50,580,2000
1024,830,-30,580,2000
1025,840,-10,590,2000
1026,850,-10,580,2000
1027,840,-20,560,2000
1028,830,-30,560,2000
1029,810,0,570,2000
1030,830,-20,570,2000
1031,790,0,550,2000
1032,820,-30,570,2000
1033,820,30,580,2000
1034,820,-20,600,2000
1035,780,10,600,2000
1036,840,-30,560,2000
1037,780,20,580,2000
1038,810,0,620,2000
1039,840,-10,650,2000
1040,840,0,610,2000
1041,790,-60,530,2000
1042,780,20,500,2000
1043,780,-70,550,2000
1044,800,50,580,2000
1045,790,50,660,2000
1046,810,-20,660,2000
1047,800,-30,600,2000
1048,840,-10,560,2000
1049,800,-10,560,2000
1050,820,0,580,0
1051,810,10,580,0
1052,790,0,570,0
1053,810,0,580,0
1054,830,0,580,0
1055,820,-10,590,0
1056,810,0,590,0
1057,830,0,590,0
1058,830,0,580,0
1059,820,0,580,0
1060,800,0,580,0
1061,800,0,570,0
1062,810,0,580,0
1063,810,0,580,0
1064,820,0,580,0
1065,820,0,590,0
1066,820,0,590,0
1067,820,-10,580,0
1068,810,0,580,0
1069,820,0,580,0
1070,820,0,580,0
1071,800,-10,580,0
1072,800,0,570,0
1073,820,0,580,0
1074,820,0,580,0
1075,820,0,570,0
1076,820,0,590,0
1077,820,-10,580,0
1078,820,-10,580,0
1079,820,-10,580,0
1080,830,-10,570,0
1081,810,0,580,0
1082,810,0,580,0
1083,830,0,570,0
1084,820,0,570,0
1085,810,0,580,0
1086,840,0,580,0
1087,820,0,580,0
1088,820,0,570,0
1089,830,0,570,0
1090,820,0,570,0
1091,810,0,570,0
1092,820,0,570,0
1093,840,-10,580,0
1094,830,0,580,0
1095,830,0,560,0
1096,840,0,580,0
1097,820,0,570,0
1098,810,-10,560,0
1099,830,-10,580,0
1100,820,-10,580,0
1101,840,0,560,0
1102,830,-10,570,0
1103,820,-10,580,0
1104,830,0,570,0
1105,830,0,570,0
1106,820,0,570,0
1107,820,0,570,0
1108,830,0,580,0
1109,820,-10,570,0
1110,820,0,580,0
1111,830,0,570,0
1112,840,-10,580,0
1113,810,-10,570,0
1114,830,-10,570,0
1115,830,-10,570,0
1116,800,-10,570,0
1117,830,0,570,0
1118,840,-10,570,0
1119,810,-10,580,0
1120,810,0,560,0
1121,840,-10,560,0
1122,830,-10,570,0
1123,830,-10,590,0
1124,840,-10,570,0
1125,830,-10,560,0
1126,830,0,560,0
1127,820,0,560,0
1128,830,0,570,0
1129,840,-10,580,0
1130,820,0,560,0
1131,820,0,570,0
1132,820,0,570,0
1133,830,0,560,0
1134,830,0,580,0
1135,830,-10,580,0
1136,820,0,570,0
1137,830,0,570,0
1138,830,0,560,0
1139,830,0,570,0
1140,820,0,570,0
1141,830,0,570,0
1142,820,0,580,0
1143,830,0,570,0
1144,830,0,570,0
1145,830,0,570,0
1146,810,0,580,0
1147,820,0,570,0
1148,840,0,570,0
1149,830,0,570,0
1150,830,0,570,0
1151,830,0,580,0
1152,820,0,570,0
1153,820,0,580,0
1154,820,0,570,0
1155,820,0,570,0
1156,830,0,580,0
1157,820,0,580,0
1158,820,0,580,0
1159,800,0,580,0
1160,820,0,570,0
1161,810,-10,580,0
1162,820,0,570,0
1163,830,-10,580,0
1164,820,-10,580,0
1165,800,-10,580,0
1166,830,-10,580,0
1167,830,0,580,0
1168,820,0,580,0
1169,820,0,580,0
1170,810,0,580,0
1171,810,10,580,0
1172,800,10,580,0
1173,790,10,590,0
1174,810,0,600,0
1175,800,0,590,0
1176,800,10,590,0
1177,810,0,590,0
1178,810,0,590,0
1179,800,0,590,0
1180,810,0,590,0
1181,800,-10,590,0
1182,810,0,580,0
1183,820,0,580,0
1184,810,0,590,0
1185,800,0,580,0
1186,810,0,580,0
1187,810,0,590,0
1188,810,0,590,0
1189,810,0,590,0
1190,810,0,590,0
1191,800,0,590,0
1192,810,0,580,0
1193,810,0,590,0
1194,800,0,590,0
1195,810,0,590,0
1196,810,0,590,0
1197,810,0,590,0
1198,810,0,590,0
1199,810,0,590,0
1200,810,0,600,0
1201,800,0,590,0
1202,800,0,580,0
1203,800,10,600,0
1204,790,-10,590,0
1205,780,30,600,0
1206,780,-10,600,0
1207,770,20,600,0
1208,770,-20,620,0
1209,770,10,630,0
1210,810,0,640,0
1211,790,-20,630,0
1212,770,0,630,0
1213,810,-10,640,0
1214,770,0,560,0
1215,770,0,590,0
1216,810,10,600,0
1217,780,0,600,0
1218,800,0,590,0
1219,800,0,590,0
1220,790,0,600,0
1221,790,0,600,0
1222,790,0,590,0
1223,800,0,600,0
1224,800,0,600,0
1225,780,0,600,2000
1226,800,0,600,2000
1227,790,0,600,2000
1228,790,0,600,2000
1229,800,0,600,2000
1230,810,0,600,2000
1231,800,0,610,2000
1232,790,0,600,2000
1233,780,0,590,2000
1234,790,0,590,2000
1235,790,0,600,2000
1236,780,0,600,2000
1237,790,0,600,2000
1238,800,0,610,2000
1239,800,0,600,2000
1240,780,0,590,2000
1241,780,0,600,2000
1242,790,30,650,2000
1243,900,0,700,2000
1244,750,100,880,2000
1245,950,-10,1210,2000
1246,1260,-240,1450,2000
1247,1570,-360,1460,2000
1248,1540,-400,1220,2000
1249,1250,-320,760,2000
1250,920,-190,360,2000
1251,460,-10,170,2000
1252,-50,90,160,2000
1253,-290,270,100,2000
1254,-400,350,80,2000
1255,-390,320,80,2000
1256,-390,340,140,2000
1257,-130,510,260,2000
1258,170,640,460,2000
1259,1030,760,770,2000
1260,1430,740,880,2000
1261,2080,280,1020,2000
1262,1770,-10,1070,2000
1263,1820,-220,1320,2000
1264,1600,-50,1750,2000
1265,1430,230,1970,2000
1266,1410,530,1690,2000
1267,1480,520,1430,2000
1268,1250,460,1110,2000
1269,960,270,660,2000
1270,580,70,300,2000
1271,60,-80,70,2000
1272,120,-240,-130,2000
1273,-20,-310,-280,2000
1274,-170,-400,-420,2000
1275,-30,-390,-490,2000
1276,-20,-340,-470,2000
1277,210,-150,-490,2000
1278,460,-160,-290,2000
1279,680,210,140,2000
1280,1100,190,900,2000
1281,1220,510,1540,2000
1282,1450,380,1680,2000
1283,1220,470,1500,2000
1284,1080,370,1400,2000
1285,890,260,1110,2000
1286,830,170,860,2000
1287,780,80,730,2000
1288,770,70,610,2000
1289,830,0,590,2000
1290,780,0,570,2000
1291,770,10,580,2000
1292,860,0,590,2000
1293,770,10,560,2000
1294,830,0,570,2000
1295,840,0,570,2000
1296,830,0,590,2000
1297,810,20,580,2000
1298,810,10,590,2000
1299,820,-10,580,2000
1300,840,10,590,2000
1301,800,-10,600,2000
1302,810,40,600,2000
1303,780,-10,600,2000
1304,810,40,610,2000
1305,760,40,600,2000
1306,740,80,640,2000
1307,760,40,640,2000
1308,790,30,670,2000
1309,790,-60,680,2000
1310,830,80,600,2000
1311,740,0,550,2000
1312,770,30,590,2000
1313,750,70,570,2000
1314,780,40,620,2000
1315,780,10,630,2000
1316,780,40,660,2000
1317,830,60,670,2000
1318,770,0,600,2000
1319,800,30,550,2000
1320,770,30,590,2000
1321,780,30,590,2000
1322,800,30,590,2000
1323,790,40,600,2000
1324,830,30,610,2000
1325,780,40,610,0
1326,790,40,590,0
1327,780,40,580,0
1328,820,50,600,0
1329,800,30,590,0
1330,800,20,600,0
1331,790,40,600,0
1332,780,40,600,0
1333,770,40,600,0
1334,770,40,600,0
1335,790,40,600,0
1336,780,50,600,0
1337,770,30,590,0
1338,780,30,600,0
1339,770,20,610,0
1340,790,40,600,0
1341,790,60,610,0
1342,790,80,610,0
1343,760,80,610,0
1344,780,60,620,0
1345,770,80,620,0
1346,780,40,610,0
1347,780,30,610,0
1348,800,20,610,0
1349,780,20,610,0
1350,760,30,600,0
1351,770,30,600,0
1352,780,30,610,0
1353,770,40,630,0
1354,780,40,620,0
1355,770,50,630,0
1356,770,50,610,0
1357,760,40,600,0
1358,770,30,610,0
1359,780,30,610,0
1360,770,50,610,0
1361,770,50,610,0
1362,770,70,610,0
1363,770,60,610,0
1364,770,50,610,0
1365,780,20,620,0
1366,770,0,640,0
1367,800,0,670,0
1368,790,0,650,0
1369,760,-10,640,0
1370,770,10,610,0
1371,780,40,590,0
1372,740,30,610,0
1373,760,10,610,0
1374,770,0,600,0
1375,800,0,610,0
1376,810,0,610,0
1377,830,0,620,0
1378,790,10,610,0
1379,780,10,590,0
1380,800,10,590,0
1381,800,10,590,0
1382,770,-10,590,0
1383,800,-10,600,0
1384,790,-10,600,0
1385,800,-10,600,0
1386,810,0,600,0
1387,790,10,600,0
1388,930,0,570,0
1389,720,0,590,0
1390,530,-50,630,0
1391,840,20,660,0
1392,750,30,600,0
1393,790,-10,610,0
1394,810,-40,600,0
1395,800,-20,590,0
1396,810,-10,590,0
1397,790,10,600,0
1398,790,20,600,0
1399,770,10,610,0
1400,770,10,610,0
1401,800,20,610,0
1402,810,10,610,0
1403,790,0,600,0
1404,780,0,600,0
1405,780,0,590,0
1406,780,10,600,0
1407,780,10,600,0
1408,780,10,610,0
1409,780,0,620,0
1410,790,10,620,0
1411,790,10,620,0
1412,780,0,600,0
1413,800,0,590,0
1414,790,-10,590,0
1415,790,0,600,0
1416,770,0,620,0
1417,790,0,620,0
1418,750,0,620,0
1419,770,0,610,0
1420,780,0,610,0
1421,780,0,610,0
1422,780,-10,610,0
1423,790,0,610,0
1424,780,0,610,0
1425,790,-10,600,0
1426,780,0,600,0
1427,780,0,610,0
1428,780,0,610,0
1429,780,0,610,0
1430,780,0,600,0
1431,780,0,600,0
1432,780,-10,600,0
1433,780,0,610,0
1434,790,-10,600,0
1435,780,-10,600,0
1436,780,-10,610,0
1437,780,-10,600,0
1438,780,-10,600,0
1439,790,-10,610,0
1440,780,-10,610,0
1441,780,-10,610,0
1442,790,-10,600,0
1443,780,-10,600,0
1444,790,-10,600,0
1445,790,-10,600,0
1446,780,-10,600,0
1447,770,0,590,0
1448,780,-10,600,0
1449,790,-10,600,0
1450,790,-10,610,0
1451,790,-20,600,0
1452,790,-10,600,0
1453,820,0,600,0
1454,790,0,600,0
1455,780,0,600,0
1456,780,0,600,0
1457,800,0,590,0
1458,820,0,600,0
1459,790,-20,600,0
1460,780,-20,600,0
1461,790,-10,590,0
1462,790,-10,590,0
1463,800,0,590,0
1464,790,0,600,0
1465,790,0,600,0
1466,790,-10,600,0
1467,790,-10,600,0
1468,800,-10,600,0
1469,800,-10,600,0
1470,800,-10,610,0
1471,800,-10,600,0
1472,790,-20,590,0
1473,800,-10,590,0
1474,790,-10,600,0
1475,790,-10,600,0
1476,780,0,600,0
1477,800,0,600,0
1478,790,-10,600,0
1479,780,0,600,0
1480,790,-10,610,0
1481,780,0,610,0
1482,790,0,610,0
1483,780,0,600,0
1484,800,-10,600,0
1485,770,0,610,0
1486,790,0,600,0
1487,770,0,600,0
1488,790,-10,600,0
1489,770,10,630,0
1490,790,-10,620,0
1491,760,10,630,0
1492,770,10,620,0
1493,760,0,610,0
1494,770,10,620,0
1495,760,10,630,0
1496,760,10,630,0
1497,750,20,680,0
1498,830,0,610,0
1499,730,10,660,0
1500,760,20,710,0
1501,800,0,680,0
1502,790,-10,570,0
1503,760,10,570,0
1504,770,10,590,0
1505,770,10,610,0
1506,810,0,620,0
1507,800,0,630,0
1508,780,0,620,0
1509,780,10,610,0
1510,770,0,610,0
1511,770,0,610,0
1512,780,10,610,0
1513,780,10,610,0
1514,780,0,610,0
1515,770,10,610,0
1516,780,0,610,0
1517,780,0,610,0
1518,770,10,610,0
1519,770,10,610,0
1520,770,0,610,0
1521,780,10,620,0
1522,780,10,620,0
1523,760,0,620,0
1524,770,0,610,0
1525,770,0,610,2000
1526,770,0,620,2000
1527,770,0,610,2000
1528,770,0,620,2000
1529,770,0,620,2000
1530,770,0,620,2000
1531,770,0,620,2000
1532,770,0,610,2000
1533,770,0,620,2000
1534,770,0,610,2000
1535,780,0,620,2000
1536,770,0,610,2000
1537,780,0,620,2000
1538,780,0,630,2000
1539,770,0,630,2000
1540,770,0,610,2000
1541,790,10,610,2000
1542,780,10,630,2000
1543,770,0,630,2000
1544,780,10,670,2000
1545,790,-40,740,2000
1546,850,20,780,2000
1547,850,-90,950,2000
1548,1000,-210,1240,2000
1549,1180,-280,1270,2000
1550,1260,-320,1170,2000
1551,1230,-400,1020,2000
1552,1040,-390,790,2000
1553,790,-270,520,2000
1554,450,-160,270,2000
1555,260,-10,240,2000
1556,-80,210,220,2000
1557,-250,320,250,2000
1558,-300,380,230,2000
1559,-170,390,260,2000
1560,60,490,360,2000
1561,320,510,300,2000
1562,1030,550,620,2000
1563,1350,590,680,2000
1564,1930,210,790,2000
1565,1800,60,840,2000
1566,2170,-350,1220,2000
1567,1870,90,1840,2000
1568,1630,300,2040,2000
1569,1450,480,1620,2000
1570,1510,550,1240,2000
1571,1280,490,960,2000
1572,970,310,570,2000
1573,460,110,290,2000
1574,20,-110,40,2000
1575,50,-240,-230,2000
1576,-70,-320,-420,2000
1577,10,-340,-550,2000
1578,30,-240,-620,2000
1579,130,-180,-540,2000
1580,240,-100,-350,2000
1581,620,-10,0,2000
1582,930,170,870,2000
1583,1220,210,1320,2000
1584,1280,280,1370,2000
1585,1120,370,1470,2000
1586,1300,370,1400,2000
1587,980,370,1340,2000
1588,930,230,1120,2000
1589,810,120,750,2000
1590,830,20,600,2000
1591,780,-30,530,2000
1592,760,0,570,2000
1593,850,-20,570,2000
1594,800,-20,590,2000
1595,840,-50,560,2000
1596,810,-40,520,2000
1597,840,-40,550,2000
1598,840,-10,540,2000
1599,860,-20,540,2000
1600,850,-30,540,2000
1601,850,-20,550,2000
1602,840,-20,540,2000
1603,850,-40,580,2000
1604,840,-20,570,2000
1605,840,-20,590,2000
1606,750,10,540,2000
1607,800,0,570,2000
1608,850,-30,580,2000
1609,830,-30,600,2000
1610,840,-30,600,2000
1611,810,-50,550,2000
1612,800,-10,550,2000
1613,830,10,610,2000
1614,820,-10,580,2000
1615,780,-50,540,2000
1616,810,0,590,2000
1617,830,-10,650,2000
1618,810,0,630,2000
1619,850,-20,530,2000
1620,810,0,520,2000
1621,790,-10,570,2000
1622,810,-10,570,2000
1623,840,-10,580,2000
1624,830,-20,580,2000
1625,840,-30,580,0
1626,830,-20,590,0
1627,820,-20,580,0
1628,810,-20,580,0
1629,800,-20,560,0
1630,830,-10,540,0
1631,840,-20,570,0
1632,810,-40,580,0
1633,830,-40,580,0
1634,810,-30,580,0
1635,820,-30,560,0
1636,830,-30,560,0
1637,820,-30,570,0
1638,830,-20,580,0
1639,840,-30,580,0
1640,810,-40,570,0
1641,820,-20,560,0
1642,830,-20,570,0
1643,820,-20,580,0
1644,820,-30,570,0
1645,840,-20,560,0
1646,820,-30,580,0
1647,830,-20,580,0
1648,830,-30,580,0
1649,830,-30,560,0
1650,820,-30,560,0
1651,830,-40,570,0
1652,810,-30,580,0
1653,830,-30,570,0
1654,830,-30,580,0
1655,820,-20,570,0
1656,820,-30,560,0
1657,820,-30,570,0
1658,830,-20,570,0
1659,820,-30,580,0
1660,830,-40,580,0
1661,830,-30,570,0
1662,830,-30,580,0
1663,810,-40,560,0
1664,840,-20,570,0
1665,820,-20,580,0
1666,810,-30,570,0
1667,810,-20,570,0
1668,830,-30,570,0
1669,820,-30,580,0
1670,810,-30,580,0
1671,830,-30,570,0
1672,820,-30,580,0
1673,820,-20,580,0
1674,810,-30,570,0
1675,820,-30,580,0
1676,810,-30,580,0
1677,830,-30,580,0
1678,820,-30,590,0
1679,820,-40,580,0
1680,820,-30,570,0
1681,820,-30,580,0
1682,820,-30,580,0
1683,820,-30,580,0
1684,820,-30,580,0
1685,800,-30,580,0
1686,820,-30,580,0
1687,820,-30,580,0
1688,820,-30,590,0
1689,820,-30,580,0
1690,820,-40,580,0
1691,800,-30,570,0
1692,810,-40,580,0
1693,810,-30,590,0
1694,810,-30,580,0
1695,820,-40,590,0
1696,810,-30,590,0
1697,810,-30,580,0
1698,810,-30,590,0
1699,810,-40,580,0
1700,810,-30,580,0
1701,810,-40,590,0
1702,810,-30,590,0
1703,790,-30,590,0
1704,810,-30,590,0
1705,810,-30,590,0
1706,800,-40,600,0
1707,810,-40,590,0
1708,800,-40,590,0
1709,790,-40,590,0
1710,800,-40,590,0
1711,800,-40,590,0
1712,800,-40,590,0
1713,800,-50,590,0
1714,810,-40,600,0
1715,810,-40,590,0
1716,790,-40,590,0
1717,790,-40,590,0
1718,810,-40,590,0
1719,800,-40,600,0
1720,790,-40,590,0
1721,810,-40,590,0
1722,800,-40,600,0
1723,800,-40,600,0
1724,800,-50,590,0
1725,820,-40,580,0
1726,790,-30,590,0
1727,790,-40,590,0
1728,780,-30,600,0
1729,810,-50,590,0
1730,780,-40,600,0
1731,800,-20,600,0
1732,830,-50,620,0
1733,790,-60,610,0
1734,800,-40,640,0
1735,810,-20,590,0
1736,810,-50,550,0
1737,770,-30,580,0
1738,810,-30,590,0
1739,810,-30,600,0
1740,810,-40,590,0
1741,810,-40,590,0
1742,810,-30,590,0
1743,810,-30,590,0
1744,800,-40,590,0
1745,800,-30,590,0
1746,800,-40,590,0
1747,800,-40,590,0
1748,800,-40,590,0
1749,810,-40,590,0
1750,800,-40,590,2000
1751,810,-40,590,2000
1752,810,-40,590,2000
1753,800,-30,600,2000
1754,800,-40,580,2000
1755,810,-40,590,2000
1756,790,-50,600,2000
1757,800,-40,590,2000
1758,820,-40,590,2000
1759,800,-40,590,2000
1760,800,-40,590,2000
1761,810,-40,590,2000
1762,800,-40,590,2000
1763,810,-40,590,2000
1764,820,-40,590,2000
1765,790,-40,580,2000
1766,810,-40,580,2000
1767,810,-40,590,2000
1768,810,-40,640,2000
1769,860,-30,710,2000
1770,870,-130,800,2000
1771,850,-90,1060,2000
1772,1050,-210,1300,2000
1773,1240,-320,1400,2000
1774,1480,-330,1150,2000
1775,1340,-350,870,2000
1776,1000,-330,580,2000
1777,780,-250,360,2000
1778,390,-130,220,2000
1779,-20,0,210,2000
1780,-130,150,160,2000
1781,-290,310,130,2000
1782,-240,330,170,2000
1783,-240,430,230,2000
1784,-40,600,270,2000
1785,440,670,490,2000
1786,1080,650,720,2000
1787,1780,500,850,2000
1788,1950,170,900,2000
1789,1880,-280,910,2000
1790,1800,-270,1200,2000
1791,1540,-50,1680,2000
1792,1490,190,1890,2000
1793,1490,440,1720,2000
1794,1460,470,1330,2000
1795,1230,370,900,2000
1796,930,100,530,2000
1797,490,-70,290,2000
1798,230,-190,110,2000
1799,40,-260,-30,2000
1800,-40,-330,-160,2000
1801,-210,-310,-310,2000
1802,-160,-390,-450,2000
1803,-80,-340,-490,2000
1804,240,-250,-450,2000
1805,480,-150,-300,2000
1806,680,-50,170,2000
1807,990,230,1020,2000
1808,1280,230,1390,2000
1809,1200,360,1520,2000
1810,1340,290,1500,2000
1811,1110,370,1510,2000
1812,970,300,1290,2000
1813,780,160,980,2000
1814,730,70,730,2000
1815,730,20,570,2000
1816,770,-40,540,2000
1817,750,-10,590,2000
1818,850,-40,610,2000
1819,850,-50,600,2000
1820,850,-80,590,2000
1821,850,-70,520,2000
1822,850,-60,550,2000
1823,840,-60,560,2000
1824,830,-40,560,2000
1825,840,-40,550,2000
1826,840,-50,540,2000
1827,840,-30,540,2000
1828,850,-50,550,2000
1829,820,-20,570,2000
1830,870,-60,560,2000
1831,810,-40,570,2000
1832,840,-20,570,2000
1833,850,-60,580,2000
1834,840,-30,590,2000
1835,830,-50,530,2000
1836,750,-10,600,2000
1837,830,-40,590,2000
1838,770,0,650,2000
1839,800,0,680,2000
1840,820,-80,700,2000
1841,830,-20,570,2000
1842,770,-70,490,2000
1843,770,20,580,2000
1844,770,-30,660,2000
1845,780,20,630,2000
1846,770,-20,690,2000
1847,770,-20,710,2000
1848,800,-20,540,2000
1849,780,-30,540,2000
1850,790,-10,580,0
1851,780,-20,600,0
1852,820,-10,600,0
1853,810,-10,590,0
1854,820,-20,600,0
1855,820,-20,590,0
1856,800,-30,570,0
1857,800,-20,570,0
1858,810,-20,580,0
1859,820,-20,590,0
1860,820,-40,600,0
1861,810,-30,590,0
1862,810,-30,580,0
1863,810,-20,580,0
1864,810,-20,580,0
1865,820,-30,580,0
1866,820,-30,590,0
1867,810,-40,590,0
1868,810,-40,580,0
1869,810,-30,580,0
1870,810,-30,570,0
1871,820,-30,580,0
1872,810,-40,580,0
1873,830,-40,590,0
1874,820,-40,580,0
1875,820,-30,580,0
1876,810,-20,580,0
1877,790,-20,560,0
1878,820,-40,560,0
1879,830,-40,580,0
1880,830,-40,590,0
1881,830,-40,590,0
1882,820,-30,590,0
1883,830,-30,580,0
1884,830,-40,580,0
1885,810,-30,570,0
1886,810,-30,560,0
1887,830,-40,570,0
1888,820,-40,580,0
1889,830,-40,580,0
1890,830,-40,580,0
1891,810,-40,590,0
1892,820,-40,580,0
1893,830,-30,570,0
1894,820,-30,580,0
1895,810,-40,580,0
1896,820,-30,590,0
1897,820,-30,580,0
1898,810,-40,580,0
1899,820,-30,590,0
1900,830,-40,590,0
1901,810,-30,590,0
1902,800,-40,590,0
1903,810,-30,580,0
1904,810,-30,580,0
1905,800,-30,580,0
1906,810,-40,590,0
1907,810,-40,590,0
1908,810,-40,580,0
1909,800,-40,580,0
1910,820,-40,580,0
1911,810,-40,590,0
1912,810,-40,590,0
1913,810,-40,580,0
1914,810,-40,580,0
1915,830,-40,580,0
1916,830,-40,590,0
1917,810,-50,590,0
1918,820,-50,580,0
1919,830,-40,580,0
1920,820,-40,590,0
1921,800,-40,580,0
1922,830,-30,580,0
1923,810,-40,590,0
1924,810,-40,580,0
1925,810,-40,580,0
1926,820,-40,580,0
1927,810,-40,590,0
1928,810,-40,590,0
1929,820,-40,590,0
1930,800,-40,590,0
1931,810,-40,590,0
1932,810,-40,590,0
1933,810,-40,590,0
1934,810,-40,590,0
1935,800,-40,590,0
1936,800,-40,580,0
1937,810,-40,590,0
1938,820,-50,590,0
1939,810,-40,590,0
1940,800,-40,600,0
1941,810,-50,590,0
1942,790,-40,580,0
1943,790,-40,590,0
1944,810,-40,590,0
1945,800,-40,590,0
1946,800,-40,590,0
1947,810,-40,600,0
1948,800,-40,590,0
1949,790,-40,590,0
1950,810,-40,600,0
1951,800,-50,590,0
1952,790,-40,590,0
1953,800,-50,590,0
1954,790,-40,590,0
1955,810,-40,590,0
1956,810,-40,600,0
1957,800,-50,600,0
1958,790,-40,590,0
1959,820,-40,590,0
1960,800,-50,590,0
1961,790,-40,590,0
1962,800,-50,600,0
1963,800,-40,590,0
1964,790,-50,600,0
1965,790,-40,590,0
1966,800,-30,650,0
1967,800,-100,530,0
1968,770,-10,590,0
1969,800,-30,680,0
1970,840,-20,660,0
1971,780,-80,610,0
1972,830,-30,560,0
1973,790,-50,620,0
1974,780,-50,590,0
1975,790,-20,560,0
1976,790,-30,590,0
1977,800,-40,600,0
1978,810,-40,590,0
1979,790,-40,590,0
1980,810,-40,600,0
1981,800,-40,590,0
1982,800,-40,590,0
1983,790,-40,600,0
1984,800,-40,600,0
1985,790,-50,600,0
1986,790,-40,590,0
1987,790,-40,600,0
1988,790,-40,610,0
1989,790,-40,600,0
1990,800,-40,600,0
1991,800,-40,600,0
1992,790,-40,590,0
1993,790,-40,600,0
1994,790,-40,600,0
1995,790,-40,600,0
1996,810,-40,600,0
1997,800,-40,610,0
1998,790,-40,600,0
1999,790,-50,600,0
2000,790,-40,600,2000
2001,780,-40,600,2000
2002,790,-40,590,2000
2003,800,-40,600,2000
2004,790,-40,600,2000
2005,800,-50,590,2000
2006,790,-40,600,2000
2007,790,-40,590,2000
2008,790,-40,590,2000
2009,790,-40,600,2000
2010,800,-40,600,2000
2011,790,-50,590,2000
2012,810,-50,600,2000
2013,810,-40,600,2000
2014,790,-40,600,2000
2015,790,-40,600,2000
2016,790,-40,590,2000
2017,800,-40,590,2000
2018,790,-30,630,2000
2019,850,-60,740,2000
2020,900,-70,790,2000
2021,860,-120,1060,2000
2022,1030,-190,1350,2000
2023,1270,-320,1450,2000
2024,1490,-370,1270,2000
2025,1400,-370,930,2000
2026,1030,-290,580,2000
2027,760,-230,350,2000
2028,250,-120,190,2000
2029,-120,-70,170,2000
2030,-270,100,140,2000
2031,-390,210,190,2000
2032,-430,320,100,2000
2033,-260,500,180,2000
2034,-60,740,150,2000
2035,510,890,350,2000
2036,980,1040,530,2000
2037,1990,660,1150,2000
2038,2030,400,1360,2000
2039,2340,-310,1650,2000
2040,1790,20,1990,2000
2041,1220,200,2160,2000
2042,1110,470,1840,2000
2043,1250,490,1520,2000
2044,1210,470,1080,2000
2045,930,330,670,2000
2046,440,80,270,2000
2047,250,-160,0,2000
2048,200,-340,-160,2000
2049,-100,-460,-250,2000
2050,-50,-410,-320,2000
2051,-130,-400,-390,2000
2052,-140,-390,-380,2000
2053,-20,-360,-340,2000
2054,330,-200,-330,2000
2055,610,-110,-90,2000
2056,970,180,390,2000
2057,1310,300,1210,2000
2058,1460,500,1700,2000
2059,1490,380,1610,2000
2060,1290,380,1510,2000
2061,1000,340,1350,2000
2062,770,230,1010,2000
2063,800,80,710,2000
2064,790,-20,550,2000
2065,770,-40,480,2000
2066,710,-20,500,2000
2067,870,0,560,2000
2068,900,-60,570,2000
2069,820,-110,560,2000
2070,850,-90,500,2000
2071,850,-60,530,2000
2072,840,-60,560,2000
2073,840,-50,540,2000
2074,860,-70,530,2000
2075,850,-50,540,2000
2076,840,-60,530,2000
2077,830,-50,580,2000
2078,820,-50,580,2000
2079,850,-90,550,2000
2080,790,0,590,2000
2081,790,-120,590,2000
2082,840,-30,580,2000
2083,850,-60,610,2000
2084,820,-50,660,2000
2085,790,-80,600,2000
2086,790,-90,490,2000
2087,730,0,580,2000
2088,810,-60,590,2000
2089,810,-50,590,2000
2090,810,-50,610,2000
2091,820,-80,600,2000
2092,820,-40,580,2000
2093,830,-50,570,2000
2094,830,-50,580,2000
2095,830,-60,580,2000
2096,810,-60,570,2000
2097,830,-60,580,2000
2098,840,-60,580,2000
2099,830,-60,570,2000
2100,790,-50,570,0
2101,810,-40,570,0
2102,810,-60,580,0
2103,800,-90,590,0
2104,830,-70,580,0
2105,830,-80,580,0
2106,810,-90,580,0
2107,830,-80,580,0
2108,830,-80,580,0
2109,820,-70,580,0
2110,810,-60,580,0
2111,810,-60,560,0
2112,820,-60,560,0
2113,820,-60,580,0
2114,830,-70,590,0
2115,840,-70,580,0
2116,830,-70,570,0
2117,820,-70,570,0
2118,830,-60,560,0
2119,820,-70,570,0
2120,830,-80,570,0
2121,830,-70,560,0
2122,840,-70,570,0
2123,830,-70,580,0
2124,820,-70,570,0
2125,830,-70,560,0
2126,820,-80,560,0
2127,830,-70,570,0
2128,830,-80,570,0
2129,830,-70,560,0
2130,840,-70,560,0
2131,830,-80,570,0
2132,830,-70,560,0
2133,840,-70,560,0
2134,840,-80,560,0
2135,830,-70,560,0
2136,830,-70,550,0
2137,840,-80,560,0
2138,840,-80,560,0
2139,840,-70,550,0
2140,830,-80,560,0
2141,830,-80,560,0
2142,840,-80,550,0
2143,840,-80,540,0
2144,820,-80,560,0
2145,830,-90,560,0
2146,840,-80,550,0
2147,840,-80,560,0
2148,830,-90,560,0
2149,850,-90,560,0
2150,850,-90,550,0
2151,830,-80,560,0
2152,840,-80,540,0
2153,840,-80,550,0
2154,810,-80,550,0
2155,840,-80,550,0
2156,840,-90,550,0
2157,840,-80,550,0
2158,840,-90,560,0
2159,840,-90,550,0
2160,840,-80,560,0
2161,840,-90,560,0
2162,820,-80,550,0
2163,830,-80,530,0
2164,820,-70,560,0
2165,850,-90,580,0
2166,850,-80,570,0
2167,850,-100,560,0
2168,840,-60,520,0
2169,800,-60,550,0
2170,840,-80,570,0
2171,830,-50,590,0
2172,840,-100,600,0
2173,840,-40,560,0
2174,810,-80,590,0
2175,810,-40,610,0
2176,830,-100,590,0
2177,820,-70,520,0
2178,830,-70,520,0
2179,830,-60,580,0
2180,830,-80,590,0
2181,830,-70,550,0
2182,840,-70,550,0
2183,830,-80,560,0
2184,830,-70,560,0
2185,820,-60,560,0
2186,830,-70,560,0
2187,830,-80,560,0
2188,830,-70,560,0
2189,830,-80,580,0
2190,830,-80,580,0
2191,840,-70,570,0
2192,830,-80,570,0
2193,830,-80,570,0
2194,820,-70,570,0
2195,840,-70,570,0
2196,830,-80,560,0
2197,820,-70,560,0
2198,830,-70,570,0
2199,830,-70,570,0
2200,830,-80,570,2000
2201,830,-80,570,2000
2202,830,-80,570,2000
2203,830,-70,570,2000
2204,830,-80,560,2000
2205,820,-70,570,2000
2206,830,-70,570,2000
2207,820,-70,570,2000
2208,830,-70,570,2000
2209,840,-70,570,2000
2210,830,-80,570,2000
2211,820,-70,560,2000
2212,840,-80,560,2000
2213,830,-80,570,2000
2214,820,-70,560,2000
2215,840,-70,560,2000
2216,830,-80,590,2000
2217,850,-60,650,2000
2218,870,-70,670,2000
2219,820,-60,780,2000
2220,930,-110,1020,2000
2221,1120,-240,1390,2000
2222,1460,-390,1510,2000
2223,1720,-470,1240,2000
2224,1520,-480,860,2000
2225,1300,-340,390,2000
2226,710,-160,110,2000
2227,230,90,40,2000
2228,-260,300,10,2000
2229,-490,360,20,2000
2230,-540,440,-10,2000
2231,-390,520,50,2000
2232,-280,740,90,2000
2233,250,820,350,2000
2234,870,870,530,2000
2235,1660,780,890,2000
2236,1970,490,900,2000
2237,2260,250,1010,2000
2238,2040,-190,1240,2000
2239,2080,-180,1550,2000
2240,1620,-90,1850,2000
2241,1540,130,1660,2000
2242,1530,280,1360,2000
2243,1360,370,1110,2000
2244,1070,240,750,2000
2245,720,60,410,2000
2246,290,-90,120,2000
2247,90,-210,-40,2000
2248,10,-280,-200,2000
2249,-280,-370,-310,2000
2250,-210,-270,-520,2000
2251,-70,-270,-550,2000
2252,70,-90,-550,2000
2253,320,-20,-490,2000
2254,570,110,-170,2000
2255,960,330,520,2000
2256,1290,370,1200,2000
2257,1490,520,1650,2000
2258,1520,440,1630,2000
2259,1360,400,1550,2000
2260,1050,340,1350,2000
2261,940,200,1060,2000
2262,820,100,800,2000
2263,850,30,610,2000
2264,830,-10,510,2000
2265,840,-20,480,2000
2266,830,-40,470,2000
2267,770,-40,470,2000
2268,830,-50,480,2000
2269,860,-40,500,2000
2270,860,-50,520,2000
2271,860,-40,520,2000
2272,850,-50,530,2000
2273,870,-70,500,2000
2274,850,-40,520,2000
2275,860,-50,530,2000
2276,840,-30,500,2000
2277,800,-20,560,2000
2278,870,-70,570,2000
2279,780,10,590,2000
2280,840,-60,590,2000
2281,830,-50,580,2000
2282,810,-60,590,2000
2283,860,-10,590,2000
2284,830,-140,490,2000
2285,820,20,450,2000
2286,830,-70,570,2000
2287,860,0,580,2000
2288,850,-30,590,2000
2289,850,-20,600,2000
2290,850,-40,530,2000
2291,850,-50,490,2000
2292,840,-20,510,2000
2293,850,-20,520,2000
2294,850,-30,530,2000
2295,850,-30,540,2000
2296,850,-40,550,2000
2297,860,-40,530,2000
2298,840,-40,530,2000
2299,850,-30,530,2000
2300,840,-40,540,0
2301,820,-40,530,0
2302,840,-50,540,0
2303,840,-50,540,0
2304,840,-50,560,0
2305,850,-40,570,0
2306,840,-60,560,0
2307,840,-50,540,0
2308,850,-40,530,0
2309,830,-40,550,0
2310,840,-40,560,0
2311,850,-50,550,0
2312,840,-50,540,0
2313,850,-40,530,0
2314,840,-40,530,0
2315,840,-40,540,0
2316,840,-40,540,0
2317,850,-50,530,0
2318,850,-50,540,0
2319,850,-50,530,0
2320,850,-50,520,0
2321,850,-40,530,0
2322,850,-50,530,0
2323,850,-40,530,0
2324,850,-40,530,0
2325,850,-50,540,0
2326,850,-50,520,0
2327,850,-40,510,0
2328,850,-40,530,0
2329,850,-40,530,0
2330,850,-40,520,0
2331,850,-40,530,0
2332,850,-50,530,0
2333,850,-50,530,0
2334,850,-50,520,0
2335,850,-50,530,0
2336,850,-50,520,0
2337,850,-50,520,0
2338,850,-50,520,0
2339,850,-50,520,0
2340,850,-50,530,0
2341,850,-50,520,0
2342,850,-50,510,0
2343,860,-50,520,0
2344,850,-50,530,0
2345,850,-60,520,0
2346,850,-50,530,0
2347,850,-50,520,0
2348,850,-50,520,0
2349,850,-50,520,0
2350,850,-50,530,0
2351,850,-50,510,0
2352,850,-50,510,0
2353,850,-50,510,0
2354,860,-50,520,0
2355,860,-50,530,0
2356,850,-60,530,0
2357,850,-60,520,0
2358,850,-60,510,0
2359,850,-50,510,0
2360,850,-50,510,0
2361,850,-50,520,0
2362,850,-60,520,0
2363,850,-50,520,0
2364,850,-50,510,0
2365,850,-60,520,0
2366,850,-60,520,0
2367,850,-50,510,0
2368,860,-60,520,0
2369,850,-60,520,0
2370,850,-60,520,0
2371,850,-60,520,0
2372,850,-60,530,0
2373,850,-50,520,0
2374,850,-50,520,0
2375,850,-50,520,0
2376,850,-50,510,0
2377,850,-60,520,0
2378,850,-60,520,0
2379,850,-60,510,0
2380,860,-60,510,0
2381,860,-60,510,0
2382,850,-60,500,0
2383,850,-50,500,0
2384,860,-60,530,0
2385,860,-60,520,0
2386,860,-60,510,0
2387,860,-60,510,0
2388,860,-60,510,0
2389,850,-60,510,0
2390,850,-60,500,0
2391,850,-60,500,0
2392,860,-60,510,0
2393,860,-60,520,0
2394,850,-60,520,0
2395,850,-60,520,0
2396,850,-60,520,0
2397,850,-50,510,0
2398,860,-70,540,0
2399,860,-50,530,0
2400,850,-60,540,0
2401,860,-80,500,0
2402,830,-50,540,0
2403,840,-50,540,0
2404,840,-50,510,0
2405,850,-70,520,0
2406,820,-60,590,0
2407,840,-50,600,0
2408,850,-90,570,0
2409,820,-60,470,0
2410,840,-50,510,0
2411,850,-70,540,0
2412,860,-60,530,0
2413,860,-60,520,0
2414,860,-60,530,0
2415,860,-60,530,0
2416,850,-60,520,0
2417,850,-60,520,0
2418,850,-70,520,0
2419,850,-60,510,0
2420,850,-60,510,0
2421,850,-60,520,0
2422,850,-60,520,0
2423,850,-60,520,0
2424,860,-70,520,0
2425,850,-70,530,2000
2426,850,-70,510,2000
2427,850,-60,510,2000
2428,850,-70,520,2000
2429,850,-60,530,2000
2430,850,-70,520,2000
2431,850,-70,510,2000
2432,850,-60,530,2000
2433,850,-60,520,2000
2434,850,-70,510,2000
2435,850,-70,530,2000
2436,850,-70,520,2000
2437,850,-60,520,2000
2438,850,-60,520,2000
2439,850,-60,520,2000
2440,850,-60,520,2000
2441,850,-60,510,2000
2442,850,-60,550,2000
2443,870,-70,640,2000
2444,940,-120,740,2000
2445,900,-140,1110,2000
2446,1210,-250,1450,2000
2447,1600,-380,1570,2000
2448,1720,-390,1250,2000
2449,1630,-380,900,2000
2450,1300,-220,460,2000
2451,760,-140,170,2000
2452,140,50,20,2000
2453,-280,230,-10,2000
2454,-510,290,-60,2000
2455,-640,320,-30,2000
2456,-540,380,90,2000
2457,-390,630,160,2000
2458,-20,870,310,2000
2459,390,950,450,2000
2460,1580,880,1000,2000
2461,1550,520,1070,2000
2462,2090,70,980,2000
2463,2300,-370,970,2000
2464,1940,-270,1340,2000
2465,1800,-80,1870,2000
2466,1550,130,1970,2000
2467,1590,310,1730,2000
2468,1650,440,1490,2000
2469,1360,470,940,2000
2470,960,270,470,2000
2471,510,130,50,2000
2472,-110,10,-240,2000
2473,-150,-180,-450,2000
2474,-220,-240,-570,2000
2475,-330,-280,-760,2000
2476,-160,-260,-830,2000
2477,20,-40,-800,2000
2478,350,140,-660,2000
2479,640,200,-300,2000
2480,1030,410,620,2000
2481,1370,490,1730,2000
2482,1510,270,1750,2000
2483,1480,250,1530,2000
2484,1370,250,1390,2000
2485,1190,230,1260,2000
2486,880,110,1030,2000
2487,840,20,790,2000
2488,780,0,540,2000
2489,870,-40,480,2000
2490,860,-70,500,2000
2491,860,-80,550,2000
2492,850,-40,590,2000
2493,820,-30,590,2000
2494,880,-30,520,2000
2495,870,-100,480,2000
2496,870,-80,490,2000
2497,850,-70,500,2000
2498,860,-70,500,2000
2499,860,-50,500,2000
2500,870,-60,510,2000
2501,850,-60,520,2000
2502,850,-60,510,2000
2503,850,-60,510,2000
2504,850,-60,520,2000
2505,850,-60,530,2000
2506,850,-70,530,2000
2507,850,-50,550,2000
2508,850,-50,540,2000
2509,840,-50,550,2000
2510,850,-60,540,2000
2511,840,-50,540,2000
2512,820,-60,540,2000
2513,840,-40,550,2000
2514,840,-70,560,2000
2515,850,-60,540,2000
2516,850,-60,540,2000
2517,800,-40,530,2000
2518,850,-50,540,2000
2519,860,-70,570,2000
2520,860,-70,570,2000
2521,850,-80,580,2000
2522,830,-40,510,2000
2523,790,-70,480,2000
2524,810,-50,520,2000
2525,830,-40,500,2000
2526,860,-30,590,2000
2527,860,-60,630,2000
2528,810,-110,520,2000
2529,840,-60,520,2000
2530,820,-120,510,2000
2531,840,-20,540,2000
2532,810,-50,580,2000
2533,850,-110,530,2000
2534,820,-30,590,2000
2535,860,-80,530,2000
2536,760,-10,580,2000
2537,820,-90,560,2000
2538,820,-30,500,2000
2539,790,-20,660,2000
2540,850,-70,600,2000
2541,800,-30,520,2000
2542,840,-110,490,2000
2543,800,-50,540,2000
2544,840,-20,580,2000
2545,900,-90,510,2000
2546,850,-50,530,2000
2547,860,-70,530,2000
2548,850,-60,510,2000
2549,850,-60,510,2000
2550,850,-60,500,0
2551,850,-60,510,0
2552,870,-50,530,0
2553,860,-60,510,0
2554,860,-70,510,0
2555,850,-50,510,0
2556,850,-50,510,0
2557,860,-60,510,0
2558,850,-50,520,0
2559,850,-60,510,0
2560,860,-50,510,0
2561,850,-50,510,0
2562,850,-50,500,0
2563,860,-50,510,0
2564,850,-50,510,0
2565,850,-50,500,0
2566,850,-50,510,0
2567,850,-50,520,0
2568,860,-50,500,0
2569,860,-50,500,0
2570,850,-60,510,0
2571,850,-50,500,0
2572,860,-50,510,0
2573,860,-50,510,0
2574,850,-60,490,0
2575,860,-50,500,0
2576,860,-50,510,0
2577,860,-50,510,0
2578,860,-50,510,0
2579,860,-50,500,0
2580,850,-50,500,0
2581,850,-60,500,0
2582,860,-60,510,0
2583,860,-50,520,0
2584,850,-60,510,0
2585,860,-50,500,0
2586,860,-50,500,0
2587,850,-60,510,0
2588,850,-60,510,0
2589,860,-60,510,0
2590,850,-60,510,0
2591,850,-50,510,0
2592,850,-60,510,0
2593,850,-50,510,0
2594,860,-60,530,0
2595,860,-60,520,0
2596,860,-60,520,0
2597,850,-60,520,0
2598,850,-60,510,0
2599,850,-60,510,0
2600,850,-60,510,0
2601,850,-50,510,0
2602,850,-50,510,0
2603,860,-60,520,0
2604,850,-60,530,0
2605,850,-60,520,0
2606,850,-60,530,0
2607,840,-70,540,0
2608,860,-60,540,0
2609,850,-70,550,0
2610,850,-60,540,0
2611,830,-50,530,0
2612,840,-60,520,0
2613,840,-60,530,0
2614,850,-50,540,0
2615,850,-50,530,0
2616,850,-50,530,0
2617,840,-40,530,0
2618,840,-40,540,0
2619,850,-40,540,0
2620,840,-40,540,0
2621,840,-40,540,0
2622,840,-30,540,0
2623,850,-50,550,0
2624,840,-50,550,0
2625,840,-50,550,0
2626,850,-50,550,0
2627,850,-40,540,0
2628,840,-40,540,0
2629,840,-50,550,0
2630,840,-50,560,0
2631,840,-50,550,0
2632,850,-50,550,0
2633,830,-50,550,0
2634,840,-50,540,0
2635,850,-50,550,0
2636,840,-60,560,0
2637,850,-50,550,0
2638,830,-50,540,0
2639,840,-50,550,0
2640,840,-60,560,0
2641,840,-50,550,0
2642,840,-60,550,0
2643,840,-60,560,0
2644,840,-60,550,0
2645,840,-60,550,0
2646,840,-60,560,0
2647,850,-60,550,0
2648,840,-60,550,0
2649,840,-60,550,0
2650,840,-60,560,0
2651,840,-60,550,0
2652,840,-60,540,0
2653,840,-60,540,0
2654,840,-60,550,0
2655,840,-70,550,0
2656,840,-60,550,0
2657,850,-70,540,0
2658,840,-70,540,0
2659,840,-60,540,0
2660,850,-60,530,0
2661,850,-60,550,0
2662,850,-60,560,0
2663,850,-60,550,0
2664,850,-60,550,0
2665,850,-60,540,0
2666,840,-60,540,0
2667,850,-60,540,0
2668,840,-60,540,0
2669,840,-60,550,0
2670,840,-60,550,0
2671,830,-50,550,0
2672,840,-50,550,0
2673,850,-60,570,0
2674,840,-60,550,0
2675,830,-50,550,0
2676,840,-50,550,0
2677,830,-60,560,0
2678,840,-60,560,0
2679,840,-60,560,0
2680,830,-60,560,0
2681,830,-50,560,0
2682,830,-50,560,0
2683,820,-50,570,0
2684,840,-60,570,0
2685,840,-50,580,0
2686,820,-60,570,0
2687,820,-50,550,0
2688,830,-60,560,0
2689,830,-60,570,0
2690,810,-60,570,0
2691,840,-50,570,0
2692,840,-50,580,0
2693,830,-50,580,0
2694,820,-60,570,0
2695,830,-60,580,0
2696,830,-60,570,0
2697,820,-60,560,0
2698,820,-50,560,0
2699,810,-40,570,0
2700,800,-40,580,0
2701,800,-70,580,0
2702,860,-80,570,0
2703,830,50,530,0
2704,860,-60,520,0
2705,840,-70,500,0
2706,830,-30,510,0
2707,850,-40,520,0
2708,850,-50,540,0
2709,860,-40,580,0
2710,860,-20,590,0
2711,830,-20,590,0
2712,840,-20,570,0
2713,820,-20,550,0
2714,820,-40,530,0
2715,820,-40,530,0
2716,840,-50,520,0
2717,850,-60,530,0
2718,850,-50,540,0
2719,850,-40,550,0
2720,850,-40,540,0
2721,850,-40,530,0
2722,850,-30,530,0
2723,850,-10,530,0
2724,840,-10,540,0
2725,820,-10,530,0
2726,830,-30,530,0
2727,850,-30,540,0
2728,860,-30,540,0
2729,860,-40,530,0
2730,850,-30,540,0
2731,850,-10,530,0
2732,850,-10,540,0
2733,860,-10,520,0
2734,880,0,500,0
2735,860,-10,500,0
2736,850,0,500,0
2737,850,-10,510,0
2738,810,0,530,0
2739,810,20,560,0
2740,870,-10,550,0
2741,850,-20,530,0
2742,840,-30,520,0
2743,840,-40,540,0
2744,830,10,540,0
2745,840,-10,560,0
2746,830,-10,550,0
2747,840,-20,560,0
2748,820,-10,570,0
2749,840,-40,610,0
2750,820,0,600,0
2751,770,-40,590,0
2752,780,-10,560,0
2753,850,-30,580,0
2754,790,-30,610,0
2755,760,-30,610,0
2756,870,-10,590,0
2757,850,-20,570,0
2758,830,-10,550,0
2759,780,-30,570,0
2760,800,-30,570,0
2761,830,-20,570,0
2762,840,-20,570,0
2763,840,-30,560,0
2764,840,-30,570,0
2765,830,-30,570,0
2766,840,-40,560,0
2767,850,-40,560,0
2768,830,-30,560,0
2769,830,-30,550,0
2770,840,-20,550,0
2771,830,-30,560,0
2772,840,-20,560,0
2773,840,-30,550,0
2774,840,-30,570,0
2775,840,-30,560,2000
2776,830,-30,550,2000
2777,840,-30,560,2000
2778,840,-40,560,2000
2779,820,-30,550,2000
2780,850,-40,550,2000
2781,840,-30,580,2000
2782,820,-40,560,2000
2783,830,-30,540,2000
2784,850,-30,550,2000
2785,830,-30,580,2000
2786,810,-30,570,2000
2787,830,-30,560,2000
2788,840,-30,570,2000
2789,840,-30,580,2000
2790,810,-20,560,2000
2791,820,-20,570,2000
2792,830,-30,630,2000
2793,850,-90,710,2000
2794,850,-10,880,2000
2795,1010,-100,1120,2000
2796,1260,-280,1330,2000
2797,1420,-380,1310,2000
2798,1610,-460,1050,2000
2799,1420,-470,780,2000
2800,1160,-420,460,2000
2801,770,-250,240,2000
2802,300,0,120,2000
2803,-130,210,20,2000
2804,-370,360,70,2000
2805,-600,310,50,2000
2806,-540,450,150,2000
2807,-330,620,210,2000
2808,-80,840,350,2000
2809,520,870,550,2000
2810,1660,880,730,2000
2811,1750,420,860,2000
2812,2070,150,880,2000
2813,2160,-410,1200,2000
2814,2140,-160,1670,2000
2815,1740,150,2310,2000
2816,1570,450,2210,2000
2817,1760,590,1700,2000
2818,1560,560,1270,2000
2819,1150,490,590,2000
2820,760,310,140,2000
2821,-10,100,-240,2000
2822,120,-30,-380,2000
2823,-210,-190,-490,2000
2824,-430,-360,-540,2000
2825,-330,-390,-640,2000
2826,-180,-270,-680,2000
2827,110,-170,-630,2000
2828,390,10,-420,2000
2829,690,120,-40,2000
2830,1080,450,900,2000
2831,1530,400,1420,2000
2832,1340,530,1750,2000
2833,1340,450,1630,2000
2834,1200,370,1370,2000
2835,960,250,1190,2000
2836,850,180,1000,2000
2837,740,120,840,2000
2838,790,210,690,2000
2839,780,0,610,2000
2840,820,20,570,2000
2841,860,-80,570,2000
2842,770,-60,530,2000
2843,820,-30,540,2000
2844,830,-30,580,2000
2845,850,-20,580,2000
2846,850,-40,560,2000
2847,840,-50,550,2000
2848,850,-30,570,2000
2849,820,-40,570,2000
2850,820,-40,550,2000
2851,790,10,580,2000
2852,830,-40,610,2000
2853,800,20,590,2000
2854,820,10,630,2000
2855,790,0,670,2000
2856,830,-30,650,2000
2857,850,-40,560,2000
2858,800,-110,470,2000
2859,750,0,570,2000
2860,740,40,590,2000
2861,770,40,630,2000
2862,780,40,700,2000
2863,830,-40,650,2000
2864,790,-40,540,2000
2865,820,-40,570,2000
2866,810,-10,570,2000
2867,840,0,570,2000
2868,830,0,580,2000
2869,830,0,570,2000
2870,830,-10,580,2000
2871,850,-10,560,2000
2872,820,0,560,2000
2873,820,0,560,2000
2874,850,0,550,2000
2875,830,0,550,0
2876,840,-10,550,0
2877,840,-10,560,0
2878,850,0,570,0
2879,850,0,550,0
2880,850,-10,540,0
2881,840,-10,550,0
2882,830,0,540,0
2883,840,0,540,0
2884,840,0,550,0
2885,850,0,550,0
2886,840,0,560,0
2887,850,0,560,0
2888,840,0,550,0
2889,840,0,560,0
2890,840,-10,540,0
2891,830,0,530,0
2892,840,0,530,0
2893,840,-10,550,0
2894,850,-10,550,0
2895,840,-10,550,0
2896,860,-20,550,0
2897,860,-20,550,0
2898,850,-10,550,0
2899,850,-10,530,0
2900,850,-10,530,0
2901,820,0,520,0
2902,840,0,520,0
2903,840,-10,530,0
2904,850,-10,540,0
2905,840,-10,540,0
2906,860,-10,550,0
2907,850,-10,540,0
2908,850,-10,540,0
2909,840,-10,520,0
2910,820,-20,510,0
2911,850,0,530,0
2912,850,0,530,0
2913,840,10,530,0
2914,850,0,550,0
2915,850,10,550,0
2916,860,0,540,0
2917,870,-10,530,0
2918,850,-10,530,0
2919,850,-10,540,0
2920,840,-10,530,0
2921,850,0,540,0
2922,820,-10,540,0
2923,830,-10,550,0
2924,830,-40,540,0
2925,830,-30,520,0
2926,850,-40,540,0
2927,850,-10,550,0
2928,850,-20,540,0
2929,840,-30,540,0
2930,840,-20,530,0
2931,850,-20,520,0
2932,850,-10,530,0
2933,840,-10,550,0
2934,850,-10,550,0
2935,850,-10,540,0
2936,850,-20,530,0
2937,850,-20,530,0
2938,850,-30,520,0
2939,850,-20,530,0
2940,850,-10,530,0
2941,850,-10,480,0
2942,830,10,470,0
2943,840,60,420,0
2944,780,90,380,0
2945,740,110,370,0
2946,760,100,430,0
2947,760,30,470,0
2948,730,-10,580,0
2949,780,-80,660,0
2950,870,-130,680,0
2951,920,-200,730,0
2952,860,-210,770,0
2953,770,-230,770,0
2954,740,-200,750,0
2955,750,-140,760,0
2956,680,-90,740,0
2957,650,20,720,0
2958,650,70,720,0
2959,750,70,820,0
2960,630,100,760,0
2961,670,40,770,0
2962,740,40,810,0
2963,670,170,770,0
2964,600,220,780,0
2965,590,260,770,0
2966,580,310,750,0
2967,590,260,750,0
2968,590,250,740,0
2969,590,240,730,0
2970,600,170,690,0
2971,670,40,710,0
2972,750,150,720,0
2973,580,490,700,0
2974,570,430,770,0
2975,670,300,710,0
2976,660,330,690,0
2977,610,380,690,0
2978,650,360,680,0
2979,650,360,670,0
2980,630,360,670,0
2981,650,360,670,0
