sequence,accelx,accely,accelz,event
0,170,-10,980,0
1,170,-10,980,0
2,170,-10,980,0
3,180,-10,980,0
4,170,-10,980,0
5,170,-10,980,0
6,170,-10,980,0
7,170,-10,980,0
8,170,-10,980,0
9,170,-10,980,0
10,170,-10,980,0
11,170,-10,980,0
12,170,-10,980,0
13,170,-10,980,0
14,170,-10,980,0
15,160,-10,980,0
16,170,-10,980,0
17,170,-10,980,0
18,170,-10,990,0
19,170,-10,980,0
20,170,-10,980,0
21,170,0,970,0
22,170,0,980,0
23,160,-10,980,0
24,160,-10,980,0
25,170,-10,990,0
26,180,0,980,0
27,170,0,980,0
28,180,-10,980,0
29,170,0,980,0
30,170,0,980,0
31,160,-10,980,0
32,170,0,980,0
33,160,0,980,0
34,140,-10,990,0
35,110,-10,990,0
36,110,-10,990,0
37,90,-10,980,0
38,90,-10,980,0
39,100,0,980,0
40,70,0,980,0
41,80,0,990,0
42,80,-20,1000,0
43,40,0,980,0
44,80,-10,1010,0
45,20,0,990,0
46,30,-10,980,0
47,60,0,990,0
48,40,0,1010,0
49,50,0,1020,0
50,20,-10,990,0
51,-10,10,1000,0
52,80,-20,1000,0
53,90,-20,970,0
54,100,10,980,0
55,110,0,980,0
56,120,10,980,0
57,120,10,980,0
58,130,0,980,0
59,110,0,980,0
60,140,0,980,0
61,130,0,990,0
62,110,0,990,0
63,140,0,980,0
64,120,0,990,0
65,140,0,980,0
66,130,0,990,0
67,120,0,980,0
68,140,0,990,0
69,140,0,990,0
70,120,0,980,0
71,130,0,980,0
72,130,0,980,0
73,140,0,990,0
74,130,0,990,0
75,140,0,980,2000
76,130,0,980,2000
77,140,0,980,2000
78,140,0,980,2000
79,140,0,980,2000
80,120,0,980,2000
81,140,0,990,2000
82,120,0,990,2000
83,130,0,980,2000
84,140,0,990,2000
85,130,0,980,2000
86,140,0,980,2000
87,130,0,980,2000
88,140,0,990,2000
89,140,0,980,2000
90,140,0,980,2000
91,140,0,990,2000
92,150,0,1000,2000
93,140,0,1000,2000
94,140,0,990,2000
95,140,10,1000,2000
96,130,-10,1010,2000
97,130,0,1040,2000
98,100,0,1040,2000
99,90,-10,1060,2000
100,0,-30,1110,2000
101,-160,-110,1280,2000
102,310,-230,1530,2000
103,210,-330,1550,2000
104,320,-280,1480,2000
105,350,-320,1250,2000
106,280,-320,1050,2000
107,450,-290,850,2000
108,410,-230,620,2000
109,200,-150,450,2000
110,110,-110,460,2000
111,-10,70,460,2000
112,-140,280,350,2000
113,-140,400,180,2000
114,140,480,230,2000
115,240,380,250,2000
116,910,320,690,2000
117,910,170,820,2000
118,1670,170,1240,2000
119,1610,-70,1180,2000
120,1660,-150,1520,2000
121,1030,-110,1860,2000
122,1060,10,2120,2000
123,910,180,1870,2000
124,1060,270,1600,2000
125,1010,250,1230,2000
126,840,120,880,2000
127,650,-60,500,2000
128,350,-220,260,2000
129,10,-320,40,2000
130,-60,-380,-130,2000
131,-30,-390,-230,2000
132,-110,-390,-380,2000
133,140,-390,-420,2000
134,310,-250,-390,2000
135,610,-180,-210,2000
136,710,-50,210,2000
137,920,190,970,2000
138,760,440,1640,2000
139,990,340,1830,2000
140,870,400,1770,2000
141,670,310,1600,2000
142,610,250,1390,2000
143,480,130,1120,2000
144,600,40,900,2000
145,470,0,640,2000
146,670,-30,730,2000
147,670,-80,770,2000
148,660,-80,820,2000
149,570,-40,800,2000
150,610,-20,800,2000
151,600,-10,840,2000
152,610,0,860,2000
153,600,-10,800,2000
154,610,-30,770,2000
155,600,-10,750,2000
156,610,-30,790,2000
157,580,-30,800,2000
158,580,-10,790,2000
159,590,-10,850,2000
160,580,-20,830,2000
161,560,-10,800,2000
162,560,-20,810,2000
163,510,0,830,2000
164,510,-10,860,2000
165,560,-10,870,2000
166,600,-50,880,2000
167,610,-10,850,2000
168,550,0,810,2000
169,580,10,800,2000
170,520,-10,770,2000
171,510,-30,800,2000
172,530,-40,820,2000
173,490,-10,900,2000
174,540,-10,930,2000
175,560,0,880,0
176,530,20,810,0
177,550,0,780,0
178,590,0,790,0
179,580,0,820,0
180,570,-10,820,0
181,580,-10,810,0
182,580,-10,820,0
183,590,-10,830,0
184,580,-20,830,0
185,590,-20,830,0
186,580,-20,830,0
187,590,-20,820,0
188,590,-20,810,0
189,580,-10,810,0
190,590,-10,800,0
191,580,-10,810,0
192,580,-20,810,0
193,580,-20,810,0
194,580,-10,800,0
195,580,-10,820,0
196,580,-20,820,0
197,580,-10,810,0
198,580,-20,810,0
199,580,-10,800,0
200,590,-10,820,0
201,580,-10,810,0
202,580,-10,810,0
203,580,-20,810,0
204,580,-10,810,0
205,580,-10,810,0
206,580,-10,820,0
207,580,-10,810,0
208,580,-10,820,0
209,580,-20,820,0
210,590,-10,820,0
211,580,-10,810,0
212,580,-10,810,0
213,580,-10,820,0
214,580,-10,810,0
215,580,-10,810,0
216,580,-10,820,0
217,580,-10,840,0
218,580,-10,820,0
219,580,-10,800,0
220,590,-10,820,0
221,580,-10,810,0
222,580,-10,810,0
223,590,-10,820,0
224,580,-10,830,0
225,590,-10,820,0
226,580,-10,810,0
227,580,-10,810,0
228,580,-10,810,0
229,580,-10,810,0
230,580,-20,810,0
231,580,-10,810,0
232,590,-10,810,0
233,590,-10,820,0
234,580,-10,820,0
235,590,-10,820,0
236,590,-10,810,0
237,590,-10,810,0
238,580,-10,800,0
239,580,-10,800,0
240,590,-10,810,0
241,590,-10,810,0
242,580,-10,810,0
243,590,-10,810,0
244,580,-10,820,0
245,580,-10,810,0
246,590,-10,800,0
247,590,-10,800,0
248,580,-10,810,0
249,590,-20,810,0
250,590,-10,810,0
251,580,-20,810,0
252,580,-10,800,0
253,590,-10,810,0
254,580,-10,820,0
255,580,-20,800,0
256,580,-10,810,0
257,590,-20,820,0
258,580,-10,810,0
259,580,-10,800,0
260,590,-10,810,0
261,590,-10,810,0
262,580,-10,810,0
263,580,-10,810,0
264,590,-10,810,0
265,580,-10,810,0
266,580,-10,800,0
267,590,-10,810,0
268,580,-20,810,0
269,580,-10,810,0
270,590,-20,810,0
271,580,-10,810,0
272,580,-10,810,0
273,580,-20,800,0
274,580,-10,810,0
275,590,-10,820,0
276,590,-10,820,0
277,580,-10,810,0
278,580,-10,810,0
279,580,-10,810,0
280,590,-10,820,0
281,580,-20,820,0
282,580,-20,810,0
283,580,-20,810,0
284,580,-20,810,0
285,590,-20,810,0
286,580,-20,820,0
287,580,-20,810,0
288,590,-20,820,0
289,580,-20,810,0
290,580,-20,810,0
291,580,-20,820,0
292,580,-20,810,0
293,580,-20,810,0
294,580,-20,810,0
295,580,-20,820,0
296,570,-20,820,0
297,580,-20,820,0
298,580,-20,820,0
299,570,-20,810,0
300,580,-20,820,0
301,580,-20,820,0
302,590,-20,820,0
303,580,-20,830,0
304,570,-20,830,0
305,580,-20,820,0
306,580,-10,820,0
307,580,-10,830,0
308,570,-10,840,0
309,560,-20,820,0
310,560,-20,850,0
311,560,-20,830,0
312,560,-20,840,0
313,580,-10,810,0
314,530,0,840,0
315,580,-60,850,0
316,520,0,850,0
317,540,0,860,0
318,530,0,850,0
319,560,-10,830,0
320,590,-10,800,0
321,580,-10,810,0
322,590,-20,800,0
323,590,-10,800,0
324,590,-10,810,0
325,590,-10,800,0
326,580,-10,800,0
327,590,-20,800,0
328,590,-20,800,0
329,590,-10,800,0
330,590,-10,800,0
331,590,-20,800,0
332,590,-20,800,0
333,590,-20,800,0
334,590,-10,800,0
335,590,-20,800,0
336,590,-10,810,0
337,590,-20,800,0
338,590,-10,810,0
339,590,-20,800,0
340,590,-20,800,0
341,590,-20,800,0
342,590,-20,800,0
343,590,-10,800,0
344,590,-20,790,0
345,590,-10,800,0
346,590,-20,810,0
347,590,-20,800,0
348,590,-20,800,0
349,590,-20,810,0
350,590,-20,800,2000
351,590,-20,800,2000
352,590,-20,800,2000
353,590,-10,790,2000
354,590,-20,800,2000
355,590,-20,800,2000
356,590,-10,800,2000
357,590,-20,810,2000
358,590,-20,800,2000
359,590,-10,800,2000
360,590,-10,800,2000
361,590,-10,800,2000
362,590,-20,800,2000
363,590,-20,800,2000
364,590,-10,800,2000
365,590,-10,800,2000
366,590,-10,800,2000
367,590,-20,800,2000
368,590,-10,820,2000
369,580,-20,850,2000
370,670,-20,890,2000
371,600,-60,940,2000
372,640,-20,1140,2000
373,640,-230,1440,2000
374,690,-320,1660,2000
375,1390,-490,1600,2000
376,1300,-520,1310,2000
377,1100,-350,860,2000
378,780,-190,430,2000
379,280,30,150,2000
380,-110,170,90,2000
381,-390,340,10,2000
382,-280,480,40,2000
383,-410,490,120,2000
384,-140,530,230,2000
385,350,690,320,2000
386,940,590,570,2000
387,1350,610,930,2000
388,1740,330,1230,2000
389,2280,-230,1680,2000
390,2120,-420,2450,2000
391,1630,-230,2600,2000
392,1420,-20,2110,2000
393,1320,190,1580,2000
394,1090,210,970,2000
395,790,110,270,2000
396,280,-20,-110,2000
397,210,-120,-380,2000
398,80,-210,-550,2000
399,-100,-210,-730,2000
400,-10,-160,-800,2000
401,-30,-40,-730,2000
402,440,150,-560,2000
403,890,240,220,2000
404,1140,320,1020,2000
405,1390,390,1770,2000
406,1470,340,1820,2000
407,1190,380,1730,2000
408,980,320,1480,2000
409,760,240,1290,2000
410,670,120,990,2000
411,760,40,700,2000
412,820,-20,510,2000
413,720,-30,460,2000
414,830,-40,610,2000
415,850,-50,690,2000
416,780,-40,640,2000
417,790,-20,590,2000
418,800,-40,590,2000
419,840,-40,600,2000
420,830,-40,600,2000
421,780,-50,600,2000
422,770,-20,600,2000
423,820,-40,590,2000
424,780,-20,610,2000
425,820,-30,610,2000
426,750,-40,590,2000
427,840,-30,630,2000
428,700,-30,600,2000
429,800,0,630,2000
430,760,-50,630,2000
431,750,-70,680,2000
432,780,10,700,2000
433,750,-10,630,2000
434,800,-100,530,2000
435,750,40,580,2000
436,810,-80,630,2000
437,740,10,590,2000
438,740,-10,730,2000
439,770,20,740,2000
440,770,-150,600,2000
441,780,0,540,2000
442,750,-10,590,2000
443,760,-30,600,2000
444,780,-10,600,2000
445,790,-20,600,2000
446,780,-30,620,2000
447,790,-40,610,2000
448,800,-30,620,2000
449,780,-30,620,2000
450,780,-30,600,0
451,780,-20,610,0
452,770,-30,600,0
453,780,-30,610,0
454,780,-30,610,0
455,780,-30,600,0
456,780,-30,610,0
457,770,-30,600,0
458,780,-30,610,0
459,780,-40,610,0
460,770,-40,610,0
461,780,-40,610,0
462,780,-30,620,0
463,770,-40,610,0
464,780,-30,610,0
465,770,-30,610,0
466,780,-20,620,0
467,780,-30,620,0
468,770,-30,610,0
469,770,-30,610,0
470,770,-30,610,0
471,780,-30,610,0
472,780,-30,610,0
473,770,-40,610,0
474,770,-30,610,0
475,770,-40,600,0
476,770,-40,620,0
477,780,-30,620,0
478,780,-40,620,0
479,770,-40,630,0
480,770,-40,610,0
481,770,-30,610,0
482,770,-30,610,0
483,770,-30,610,0
484,770,-30,610,0
485,780,-40,620,0
486,770,-30,610,0
487,770,-40,610,0
488,780,-30,620,0
489,790,-30,610,0
490,750,0,600,0
491,840,-50,620,0
492,770,-40,610,0
493,780,-40,610,0
494,790,-30,610,0
495,780,-30,610,0
496,770,-40,600,0
497,780,-30,600,0
498,780,-30,610,0
499,770,-30,600,0
500,780,-30,610,0
501,780,-30,610,0
502,780,-30,610,0
503,780,-30,610,0
504,780,-20,610,0
505,780,-30,610,0
506,780,-30,600,0
507,780,-30,610,0
508,780,-20,600,0
509,780,-30,610,0
510,780,-30,600,0
511,780,-30,600,0
512,780,-30,610,0
513,780,-30,610,0
514,780,-30,610,0
515,780,-30,610,0
516,780,-30,600,0
517,780,-30,600,0
518,780,-30,600,0
519,780,-30,600,0
520,780,-30,600,0
521,780,-30,610,0
522,780,-30,610,0
523,780,-30,600,0
524,780,-30,610,0
525,780,-30,600,0
526,780,-30,600,0
527,780,-30,600,0
528,780,-20,610,0
529,780,-30,600,0
530,780,-40,610,0
531,780,-40,610,0
532,780,-30,600,0
533,790,-20,610,0
534,780,-30,600,0
535,780,-30,610,0
536,780,-30,610,0
537,790,-30,610,0
538,780,-30,610,0
539,780,-40,610,0
540,780,-30,600,0
541,780,-30,610,0
542,780,-40,600,0
543,780,-30,610,0
544,780,-30,610,0
545,780,-30,610,0
546,770,-30,610,0
547,780,-30,610,0
548,780,-30,610,0
549,780,-30,610,0
550,780,-40,600,0
551,780,-30,610,0
552,780,-20,610,0
553,780,-30,600,0
554,780,-30,610,0
555,780,-30,610,0
556,780,-30,610,0
557,780,-30,610,0
558,780,-30,600,0
559,790,-30,610,0
560,780,-30,600,0
561,780,-30,600,0
562,780,-30,610,0
563,780,-30,610,0
564,780,-30,610,0
565,780,-30,610,0
566,780,-30,600,0
567,780,-30,600,0
568,780,-40,610,0
569,770,-40,610,0
570,780,-30,610,0
571,790,-30,610,0
572,770,-30,610,0
573,770,-40,610,0
574,780,-30,600,0
575,780,-40,610,0
576,780,-40,610,0
577,780,-30,610,0
578,780,-40,610,0
579,780,-30,610,0
580,780,-40,600,0
581,780,-40,610,0
582,770,-30,610,0
583,770,-40,610,0
584,780,-20,610,0
585,770,-40,630,0
586,780,-50,610,0
587,760,-10,620,0
588,760,-40,640,0
589,770,-30,620,0
590,770,-30,610,0
591,760,-30,620,0
592,770,-30,620,0
593,760,-20,620,0
594,770,-30,630,0
595,770,-30,620,0
596,770,-30,620,0
597,760,-30,630,0
598,750,-30,640,0
599,760,-20,610,0
600,750,-10,660,0
601,770,-40,650,0
602,760,-40,630,0
603,780,0,650,0
604,770,-20,650,0
605,760,-20,580,0
606,770,-20,600,0
607,780,-20,620,0
608,780,-20,610,0
609,780,-30,600,0
610,780,-30,620,0
611,780,-20,610,0
612,780,-20,610,0
613,780,-20,610,0
614,780,-20,610,0
615,780,-20,610,0
616,780,-30,600,0
617,780,-30,600,0
618,770,-30,610,0
619,780,-30,610,0
620,780,-20,610,0
621,780,-20,620,0
622,770,-20,610,0
623,780,-20,610,0
624,770,-20,610,0
625,770,-20,610,2000
626,780,-20,620,2000
627,780,-30,610,2000
628,770,-30,610,2000
629,780,-20,610,2000
630,770,-20,600,2000
631,770,-30,610,2000
632,780,-20,610,2000
633,780,-20,620,2000
634,780,-20,620,2000
635,780,-20,610,2000
636,770,-20,610,2000
637,770,-20,610,2000
638,770,-20,610,2000
639,780,-20,610,2000
640,780,-20,610,2000
641,780,-30,610,2000
642,780,-20,610,2000
643,790,-20,610,2000
644,780,-20,610,2000
645,790,-20,610,2000
646,780,-10,610,2000
647,830,-40,640,2000
648,790,-10,670,2000
649,780,-30,740,2000
650,810,-40,870,2000
651,890,-120,1240,2000
652,1030,-320,1470,2000
653,1370,-390,1530,2000
654,1450,-410,1260,2000
655,1390,-390,870,2000
656,1050,-260,480,2000
657,540,-170,180,2000
658,150,30,-10,2000
659,-170,190,-60,2000
660,-510,390,-110,2000
661,-520,430,-110,2000
662,-490,650,10,2000
663,0,860,100,2000
664,690,850,410,2000
665,1040,750,850,2000
666,1820,400,1280,2000
667,1860,120,1510,2000
668,1990,-60,1850,2000
669,1330,50,2170,2000
670,1250,230,2220,2000
671,1230,460,1940,2000
672,1500,520,1690,2000
673,1320,410,1160,2000
674,1010,270,500,2000
675,390,0,0,2000
676,110,-160,-290,2000
677,40,-290,-540,2000
678,-140,-400,-770,2000
679,90,-280,-970,2000
680,170,-190,-980,2000
681,390,70,-800,2000
682,700,260,-470,2000
683,920,430,630,2000
684,1340,480,1610,2000
685,1240,490,1830,2000
686,1420,390,1780,2000
687,1120,480,1630,2000
688,920,370,1490,2000
689,750,200,1160,2000
690,700,80,790,2000
691,790,10,580,2000
692,740,-30,500,2000
693,770,-40,560,2000
694,750,-30,630,2000
695,830,-30,670,2000
696,830,-50,620,2000
697,800,-40,590,2000
698,830,-20,580,2000
699,810,-40,600,2000
700,800,-40,580,2000
701,830,-40,590,2000
702,840,-10,590,2000
703,790,-20,590,2000
704,850,-80,540,2000
705,740,10,620,2000
706,860,-60,580,2000
707,760,-20,600,2000
708,820,-50,590,2000
709,830,-40,660,2000
710,820,0,710,2000
711,770,0,630,2000
712,780,-30,490,2000
713,750,0,530,2000
714,780,-20,580,2000
715,770,0,640,2000
716,830,-70,650,2000
717,810,-50,660,2000
718,860,30,650,2000
719,770,-40,590,2000
720,790,-20,540,2000
721,780,-10,550,2000
722,790,-10,590,2000
723,790,-20,600,2000
724,790,-30,600,2000
725,790,-20,610,0
726,830,-20,620,0
727,770,-40,610,0
728,780,-30,590,0
729,790,-20,600,0
730,770,-30,600,0
731,780,-20,610,0
732,780,-30,600,0
733,790,-20,610,0
734,780,-20,600,0
735,780,-30,600,0
736,780,-20,610,0
737,770,-20,610,0
738,780,-30,610,0
739,780,-20,600,0
740,780,-30,600,0
741,770,-30,610,0
742,780,-30,610,0
743,790,-30,610,0
744,780,-30,610,0
745,790,-30,600,0
746,780,-20,600,0
747,780,-30,600,0
748,790,-30,600,0
749,780,-30,600,0
750,790,-30,610,0
751,780,-30,600,0
752,780,-30,600,0
753,790,-40,610,0
754,790,-30,600,0
755,790,-30,590,0
756,780,-30,600,0
757,790,-30,600,0
758,790,-30,600,0
759,790,-40,600,0
760,790,-30,600,0
761,800,-30,600,0
762,790,-30,590,0
763,790,-30,590,0
764,780,-40,600,0
765,800,-30,600,0
766,810,-30,600,0
767,800,-40,600,0
768,780,-40,590,0
769,810,-30,590,0
770,790,-40,590,0
771,790,-40,600,0
772,790,-40,590,0
773,810,-40,590,0
774,800,-40,600,0
775,790,-40,600,0
776,800,-30,590,0
777,800,-40,590,0
778,790,-40,590,0
779,800,-40,590,0
780,790,-40,600,0
781,800,-40,600,0
782,810,-40,600,0
783,790,-40,590,0
784,790,-40,590,0
785,800,-40,590,0
786,800,-40,590,0
787,790,-40,590,0
788,790,-40,600,0
789,810,-40,590,0
790,790,-30,590,0
791,790,-40,600,0
792,800,-40,590,0
793,800,-30,600,0
794,790,-40,590,0
795,800,-30,590,0
796,790,-40,590,0
797,790,-40,600,0
798,800,-40,590,0
799,810,-40,590,0
800,790,-40,600,0
801,800,-40,590,0
802,800,-40,590,0
803,790,-40,590,0
804,800,-40,590,0
805,800,-50,600,0
806,800,-40,590,0
807,800,-40,590,0
808,800,-40,590,0
809,790,-40,590,0
810,790,-40,590,0
811,810,-40,590,0
812,800,-40,590,0
813,790,-40,590,0
814,800,-40,590,0
815,800,-40,590,0
816,800,-40,590,0
817,810,-40,590,0
818,790,-40,590,0
819,800,-40,590,0
820,800,-40,590,0
821,800,-40,590,0
822,810,-40,590,0
823,790,-40,590,0
824,810,-40,590,0
825,810,-40,590,0
826,810,-50,590,0
827,810,-40,590,0
828,820,-40,590,0
829,800,-40,590,0
830,800,-40,590,0
831,810,-40,590,0
832,810,-40,590,0
833,810,-40,590,0
834,810,-40,590,0
835,800,-40,590,0
836,800,-40,590,0
837,810,-40,590,0
838,800,-40,590,0
839,810,-40,590,0
840,780,-40,590,0
841,800,-40,590,0
842,810,-40,590,0
843,800,-50,590,0
844,800,-40,590,0
845,810,-40,580,0
846,800,-40,590,0
847,800,-40,590,0
848,820,-40,590,0
849,810,-40,590,0
850,810,-40,590,0
851,810,-40,590,0
852,800,-40,590,0
853,800,-40,590,0
854,810,-40,590,0
855,800,-40,590,0
856,800,-40,590,0
857,790,-40,590,0
858,810,-40,590,0
859,810,-40,600,0
860,800,-40,590,0
861,800,-40,590,0
862,810,-40,590,0
863,790,-40,590,0
864,800,-40,590,0
865,800,-40,590,0
866,800,-50,590,0
867,810,-40,590,0
868,790,-40,590,0
869,800,-40,590,0
870,790,-40,590,0
871,800,-40,590,0
872,800,-40,590,0
873,800,-40,590,0
874,800,-40,590,0
875,810,-40,600,0
876,800,-40,590,0
877,810,-40,590,0
878,800,-40,590,0
879,810,-40,590,0
880,800,-40,590,0
881,800,-40,590,0
882,810,-40,590,0
883,810,-40,590,0
884,820,-40,590,0
885,800,-40,590,0
886,800,-40,590,0
887,800,-40,590,0
888,800,-40,590,0
889,800,-50,590,0
890,810,-40,590,0
891,810,-40,590,0
892,810,-50,590,0
893,800,-40,580,0
894,810,-40,580,0
895,800,-40,590,0
896,800,-40,590,0
897,810,-40,590,0
898,810,-40,590,0
899,810,-40,580,0
900,820,-40,590,0
901,800,-40,590,0
902,810,-40,580,0
903,810,-30,580,0
904,800,-40,580,0
905,800,-40,580,0
906,820,-40,590,0
907,810,-40,590,0
908,820,-50,590,0
909,800,-40,590,0
910,820,-40,590,0
911,800,-40,570,0
912,790,-40,580,0
913,800,-40,590,0
914,810,-40,590,0
915,800,-50,590,0
916,800,-40,590,0
917,810,-40,590,0
918,790,-40,580,0
919,800,-40,590,0
920,810,-40,590,0
921,800,-40,590,0
922,800,-40,590,0
923,820,-40,590,0
924,800,-50,590,0
925,790,-50,580,0
926,810,-40,590,0
927,800,-40,590,0
928,800,-40,590,0
929,810,-50,590,0
930,800,-50,590,0
931,800,-40,590,0
932,810,-40,590,0
933,810,-40,590,0
934,800,-40,590,0
935,800,-40,590,0
936,800,-50,590,0
937,800,-50,580,0
938,810,-40,590,0
939,810,-50,600,0
940,800,-50,590,0
941,810,-40,590,0
942,800,-40,590,0
943,790,-40,590,0
944,800,-40,590,0
945,810,-40,590,0
946,790,-50,590,0
947,800,-60,590,0
948,800,-40,600,0
949,840,-90,570,0
950,770,-30,600,0
951,780,-30,600,0
952,790,-30,600,0
953,790,-50,590,0
954,780,-40,600,0
955,820,-40,610,0
956,800,-50,600,0
957,780,-30,600,0
958,800,-40,590,0
959,790,-20,590,0
960,780,-60,590,0
961,770,-20,600,0
962,820,-80,600,0
963,790,-30,620,0
964,770,-10,670,0
965,790,-20,650,0
966,790,-90,600,0
967,820,-10,540,0
968,780,-50,570,0
969,790,-40,600,0
970,820,-20,590,0
971,800,-20,580,0
972,810,-30,580,0
973,790,-40,590,0
974,820,-30,590,0
975,810,-30,590,2000
976,800,-40,590,2000
977,800,-30,590,2000
978,800,-40,590,2000
979,800,-30,590,2000
980,800,-30,600,2000
981,800,-30,600,2000
982,800,-30,590,2000
983,800,-30,590,2000
984,800,-20,590,2000
985,790,-20,590,2000
986,790,-30,590,2000
987,790,-30,590,2000
988,800,-20,590,2000
989,800,-30,590,2000
990,790,-30,590,2000
991,800,-20,590,2000
992,800,-30,590,2000
993,800,-30,600,2000
994,840,-20,600,2000
995,830,10,650,2000
996,870,-40,730,2000
997,760,-40,910,2000
998,940,-80,1190,2000
999,1040,-240,1420,2000
1000,1200,-350,1350,2000
1001,1360,-390,1050,2000
1002,1240,-420,800,2000
1003,980,-380,530,2000
1004,550,-240,270,2000
1005,150,10,50,2000
1006,-260,300,-160,2000
1007,-520,530,-260,2000
1008,-610,700,-190,2000
1009,-180,880,-40,2000
1010,500,930,170,2000
1011,1210,850,500,2000
1012,1920,510,1340,2000
1013,1810,220,1620,2000
1014,2240,-210,1900,2000
1015,1510,120,2270,2000
1016,1190,270,2320,2000
1017,1170,430,1850,2000
1018,1380,410,1390,2000
1019,1390,340,860,2000
1020,970,210,480,2000
1021,390,10,170,2000
1022,350,-110,-160,2000
1023,0,-370,-400,2000
1024,-180,-380,-500,2000
1025,-170,-310,-700,2000
1026,-140,-250,-810,2000
1027,200,-50,-790,2000
1028,590,150,-600,2000
1029,1170,410,360,2000
1030,1270,280,1420,2000
1031,1450,280,1760,2000
1032,1360,270,1670,2000
1033,1220,230,1470,2000
1034,1020,220,1280,2000
1035,770,100,1060,2000
1036,730,40,780,2000
1037,750,-10,620,2000
1038,720,-40,540,2000
1039,770,-50,580,2000
1040,830,-90,620,2000
1041,810,-50,630,2000
1042,820,-70,600,2000
1043,780,-40,600,2000
1044,850,-80,580,2000
1045,830,-70,570,2000
1046,770,-70,580,2000
1047,830,-70,590,2000
1048,820,-50,600,2000
1049,820,-50,580,2000
1050,830,-40,590,2000
1051,820,-50,590,2000
1052,780,-40,580,2000
1053,830,-40,590,2000
1054,780,-30,590,2000
1055,830,-60,600,2000
1056,800,-20,550,2000
1057,830,-40,600,2000
1058,800,-60,610,2000
1059,840,-10,620,2000
1060,800,-80,530,2000
1061,770,-20,490,2000
1062,800,0,590,2000
1063,810,-90,560,2000
1064,780,-10,590,2000
1065,810,-20,680,2000
1066,840,20,670,2000
1067,830,-100,550,2000
1068,810,-30,520,2000
1069,830,-40,560,2000
1070,820,-30,590,2000
1071,820,-20,580,2000
1072,820,-20,550,2000
1073,800,-50,580,2000
1074,840,-40,580,2000
1075,810,-40,580,0
1076,820,-40,580,0
1077,810,-40,590,0
1078,810,-40,590,0
1079,820,-40,580,0
1080,800,-40,590,0
1081,800,-50,590,0
1082,800,-50,580,0
1083,800,-40,580,0
1084,810,-40,580,0
1085,810,-50,590,0
1086,790,-50,580,0
1087,800,-50,590,0
1088,810,-50,590,0
1089,810,-50,590,0
1090,820,-50,590,0
1091,790,-60,580,0
1092,810,-50,580,0
1093,800,-50,590,0
1094,800,-50,590,0
1095,810,-50,580,0
1096,800,-60,590,0
1097,820,-50,590,0
1098,810,-50,590,0
1099,810,-50,590,0
1100,810,-60,580,0
1101,800,-50,590,0
1102,810,-60,580,0
1103,820,-50,580,0
1104,810,-60,590,0
1105,810,-60,590,0
1106,810,-60,590,0
1107,810,-60,580,0
1108,820,-50,580,0
1109,820,-50,590,0
1110,810,-60,590,0
1111,810,-60,580,0
1112,820,-60,590,0
1113,810,-50,580,0
1114,820,-50,580,0
1115,810,-60,580,0
1116,810,-60,590,0
1117,820,-60,580,0
1118,810,-60,580,0
1119,800,-60,580,0
1120,820,-60,570,0
1121,810,-60,590,0
1122,820,-60,590,0
1123,820,-60,580,0
1124,810,-50,570,0
1125,800,-60,580,0
1126,820,-60,580,0
1127,810,-60,580,0
1128,820,-60,580,0
1129,820,-60,580,0
1130,810,-60,570,0
1131,810,-60,570,0
1132,810,-60,580,0
1133,820,-60,580,0
1134,820,-60,580,0
1135,820,-60,570,0
1136,820,-50,560,0
1137,830,-50,550,0
1138,800,-20,580,0
1139,790,-30,580,0
1140,860,-50,580,0
1141,770,-50,530,0
1142,840,-40,550,0
1143,820,-30,560,0
1144,830,-30,570,0
1145,840,-30,590,0
1146,810,-20,580,0
1147,820,-30,580,0
1148,810,-30,580,0
1149,800,-30,560,0
1150,810,-40,550,0
1151,830,-40,550,0
1152,840,-30,550,0
1153,830,-40,560,0
1154,840,-30,560,0
1155,840,-20,570,0
1156,840,-20,580,0
1157,840,-20,580,0
1158,840,-10,570,0
1159,830,-20,560,0
1160,820,-20,550,0
1161,830,-20,550,0
1162,820,-30,560,0
1163,840,-30,560,0
1164,840,-30,560,0
1165,830,-30,560,0
1166,830,-30,560,0
1167,830,-20,550,0
1168,830,-20,560,0
1169,830,-10,560,0
1170,820,-20,560,0
1171,830,-30,550,0
1172,840,-20,550,0
1173,840,-30,560,0
1174,820,-20,560,0
1175,840,-20,550,0
1176,850,-30,540,0
1177,850,-30,550,0
1178,850,-10,550,0
1179,840,-10,540,0
1180,840,-20,540,0
1181,840,-10,550,0
1182,850,-10,540,0
1183,850,-10,560,0
1184,830,-20,550,0
1185,820,-10,530,0
1186,840,-10,550,0
1187,840,-20,560,0
1188,830,-20,550,0
1189,840,0,530,0
1190,850,-10,560,0
1191,840,-30,560,0
1192,840,-10,550,0
1193,850,-10,540,0
1194,840,-20,540,0
1195,840,-10,540,0
1196,840,-10,550,0
1197,830,-10,550,0
1198,830,-20,550,0
1199,840,-20,550,0
1200,840,0,550,0
1201,820,-20,530,0
1202,830,-10,590,0
1203,840,-10,590,0
1204,830,-10,570,0
1205,840,-10,560,0
1206,810,-10,570,0
1207,830,-10,590,0
1208,830,-10,570,0
1209,810,0,570,0
1210,820,-10,570,0
1211,810,0,580,0
1212,820,-10,580,0
1213,810,-10,570,0
1214,830,-10,590,0
1215,810,-20,580,0
1216,820,-10,580,0
1217,810,-10,580,0
1218,810,-10,580,0
1219,820,-10,570,0
1220,800,-10,560,0
1221,810,-10,580,0
1222,820,-20,580,0
1223,820,-10,580,0
1224,830,-20,590,0
1225,840,-20,580,0
1226,820,-10,570,0
1227,820,-10,570,0
1228,810,-10,560,0
1229,810,-10,570,0
1230,810,-10,580,0
1231,820,-20,580,0
1232,830,-20,590,0
1233,830,-10,570,0
1234,830,-10,580,0
1235,820,-20,580,0
1236,810,-20,570,0
1237,820,-10,570,0
1238,810,-20,570,0
1239,830,-10,590,0
1240,820,-20,580,0
1241,810,-20,590,0
1242,820,-20,570,0
1243,820,-20,570,0
1244,800,-10,580,0
1245,780,-20,600,0
1246,810,-10,600,0
1247,770,-20,590,0
1248,800,-10,600,0
1249,820,-10,610,0
1250,790,-20,620,0
1251,790,0,650,0
1252,850,-20,570,0
1253,790,-10,550,0
1254,780,-10,580,0
1255,790,-10,590,0
1256,820,-10,600,0
1257,820,-20,580,0
1258,810,-20,580,0
1259,810,-20,580,0
1260,810,-20,590,0
1261,810,-20,590,0
1262,800,-10,580,0
1263,810,-10,590,0
1264,800,-20,590,0
1265,800,-10,590,0
1266,810,-10,590,0
1267,790,-20,600,0
1268,810,-10,580,0
1269,790,-10,590,0
1270,790,-20,590,0
1271,790,-10,580,0
1272,810,-10,590,0
1273,810,-20,590,0
1274,800,-30,600,0
1275,800,-20,590,2000
1276,820,-10,590,2000
1277,790,-20,590,2000
1278,800,-20,590,2000
1279,800,-10,590,2000
1280,800,-20,590,2000
1281,800,-10,580,2000
1282,790,-20,590,2000
1283,800,-10,590,2000
1284,800,-20,590,2000
1285,800,-10,590,2000
1286,800,-20,590,2000
1287,800,-20,590,2000
1288,800,-10,590,2000
1289,800,-10,580,2000
1290,790,-10,590,2000
1291,820,-20,580,2000
1292,780,-20,590,2000
1293,830,-10,660,2000
1294,910,-120,660,2000
1295,850,10,840,2000
1296,980,-100,1130,2000
1297,1100,-170,1360,2000
1298,1350,-290,1540,2000
1299,1480,-340,1400,2000
1300,1400,-370,950,2000
1301,1210,-260,510,2000
1302,740,-210,210,2000
1303,240,-130,70,2000
1304,-160,60,-20,2000
1305,-420,120,-90,2000
1306,-560,230,-100,2000
1307,-530,310,0,2000
1308,-480,480,80,2000
1309,50,750,150,2000
1310,580,740,450,2000
1311,770,700,810,2000
1312,1530,500,1150,2000
1313,2060,220,1470,2000
1314,2010,-230,1680,2000
1315,1900,-160,2150,2000
1316,1420,140,2470,2000
1317,1510,330,2040,2000
1318,1640,440,1600,2000
1319,1180,410,1000,2000
1320,910,270,320,2000
1321,420,10,-160,2000
1322,-160,-190,-400,2000
1323,-170,-230,-540,2000
1324,-90,-300,-720,2000
1325,-180,-360,-880,2000
1326,-50,-350,-910,2000
1327,40,-150,-800,2000
1328,380,80,-630,2000
1329,830,240,-110,2000
1330,1080,480,740,2000
1331,1470,440,1340,2000
1332,1320,580,1610,2000
1333,1460,430,1590,2000
1334,1230,500,1510,2000
1335,1010,410,1440,2000
1336,840,290,1180,2000
1337,750,150,830,2000
1338,790,60,600,2000
1339,770,0,480,2000
1340,800,0,500,2000
1341,800,10,540,2000
1342,850,10,560,2000
1343,860,-10,560,2000
1344,880,-20,560,2000
1345,890,-30,530,2000
1346,840,-10,530,2000
1347,850,-10,550,2000
1348,860,0,530,2000
1349,850,-10,530,2000
1350,830,0,520,2000
1351,830,10,520,2000
1352,860,0,530,2000
1353,860,0,540,2000
1354,860,0,520,2000
1355,840,-10,520,2000
1356,850,20,530,2000
1357,860,-10,530,2000
1358,810,20,540,2000
1359,840,-40,520,2000
1360,850,40,510,2000
1361,810,0,550,2000
1362,840,30,550,2000
1363,860,0,610,2000
1364,850,0,600,2000
1365,900,40,550,2000
1366,800,-20,470,2000
1367,790,0,440,2000
1368,770,20,580,2000
1369,840,10,600,2000
1370,820,30,640,2000
1371,840,70,680,2000
1372,820,-20,610,2000
1373,800,10,470,2000
1374,830,0,490,2000
1375,820,0,560,0
1376,840,0,590,0
1377,840,0,580,0
1378,830,0,570,0
1379,850,-10,570,0
1380,850,0,570,0
1381,840,0,550,0
1382,820,0,570,0
1383,810,0,550,0
1384,800,10,530,0
1385,840,-10,560,0
1386,850,-10,570,0
1387,840,-10,560,0
1388,840,-10,540,0
1389,840,-10,550,0
1390,830,-10,560,0
1391,830,-10,560,0
1392,840,-10,550,0
1393,840,-10,550,0
1394,840,-10,550,0
1395,820,-10,540,0
1396,850,0,550,0
1397,850,-10,560,0
1398,840,-10,550,0
1399,850,-10,540,0
1400,840,-10,540,0
1401,830,0,560,0
1402,840,-10,550,0
1403,840,-10,540,0
1404,840,-10,550,0
1405,850,-10,550,0
1406,840,-10,540,0
1407,840,-10,540,0
1408,850,-10,550,0
1409,850,-10,540,0
1410,850,-10,540,0
1411,840,-10,550,0
1412,850,-10,540,0
1413,850,-10,530,0
1414,840,-10,540,0
1415,840,-10,540,0
1416,850,-10,530,0
1417,840,-10,530,0
1418,850,-10,530,0
1419,850,-10,540,0
1420,850,-20,540,0
1421,850,-20,540,0
1422,850,-10,530,0
1423,850,-20,530,0
1424,850,-20,530,0
1425,850,-10,540,0
1426,860,-30,530,0
1427,850,-30,540,0
1428,850,-20,530,0
1429,850,-10,540,0
1430,850,-20,540,0
1431,850,-20,540,0
1432,850,-20,530,0
1433,850,-20,530,0
1434,850,-20,530,0
1435,850,-20,530,0
1436,850,-20,530,0
1437,850,-20,540,0
1438,850,-20,540,0
1439,850,-20,540,0
1440,850,-30,530,0
1441,850,-20,520,0
1442,840,-20,530,0
1443,840,-20,520,0
1444,850,-20,520,0
1445,850,-20,540,0
1446,850,-30,540,0
1447,850,-20,540,0
1448,850,-20,530,0
1449,850,-20,530,0
1450,850,-20,520,0
1451,850,-20,530,0
1452,850,-20,530,0
1453,850,-20,530,0
1454,850,-20,530,0
1455,850,-20,530,0
1456,850,-20,530,0
1457,850,-20,530,0
1458,850,-20,530,0
1459,850,-20,530,0
1460,850,-20,530,0
1461,850,-20,530,0
1462,850,-20,530,0
1463,850,-20,520,0
1464,850,-10,520,0
1465,850,-20,520,0
1466,850,-20,530,0
1467,850,-20,530,0
1468,850,-30,530,0
1469,850,-30,520,0
1470,850,-20,530,0
1471,850,-20,520,0
1472,850,-20,520,0
1473,850,-20,520,0
1474,850,-20,520,0
1475,850,-20,520,0
1476,850,-20,520,0
1477,850,-20,520,0
1478,850,-20,520,0
1479,850,-20,520,0
1480,860,-20,520,0
1481,850,-20,520,0
1482,850,-20,520,0
1483,850,-20,520,0
1484,850,-20,520,0
1485,850,-20,520,0
1486,850,-20,520,0
1487,850,-20,520,0
1488,850,-20,520,0
1489,850,-20,520,0
1490,850,-20,520,0
1491,850,-10,520,0
1492,850,-20,520,0
1493,850,-20,520,0
1494,850,-20,520,0
1495,850,-20,520,0
1496,850,-20,520,0
1497,850,-20,510,0
1498,850,-30,530,0
1499,850,-20,520,0
1500,850,-20,520,0
1501,850,-20,530,0
1502,850,-20,530,0
1503,850,-20,530,0
1504,850,-20,530,0
1505,850,-20,540,0
1506,850,-20,520,0
1507,840,-20,530,0
1508,850,-20,530,0
1509,850,-20,530,0
1510,850,-20,530,0
1511,840,-20,530,0
1512,850,-20,520,0
1513,840,-20,530,0
1514,840,-20,530,0
1515,850,-20,540,0
1516,850,-20,550,0
1517,850,-20,540,0
1518,850,-20,540,0
1519,850,-20,540,0
1520,840,-10,530,0
1521,850,-20,530,0
1522,840,-10,530,0
1523,830,-20,540,0
1524,840,-20,560,0
1525,840,-20,560,0
1526,850,-10,560,0
1527,850,-20,540,0
1528,840,-20,540,0
1529,840,-10,540,0
1530,840,-20,530,0
1531,840,-10,540,0
1532,840,-20,550,0
1533,840,-10,550,0
1534,850,-20,540,0
1535,840,-10,560,0
1536,840,-10,550,0
1537,850,-20,550,0
1538,850,-20,560,0
1539,820,-20,540,0
1540,830,-10,550,0
1541,850,-20,540,0
1542,840,-10,550,0
1543,850,-20,560,0
1544,840,-20,550,0
1545,840,-10,560,0
1546,850,-20,550,0
1547,830,-10,560,0
1548,840,-30,540,0
1549,830,-10,560,0
1550,830,-20,560,0
1551,830,-20,560,0
1552,840,-20,570,0
1553,830,-10,560,0
1554,820,-10,560,0
1555,820,-10,570,0
1556,830,-10,560,0
1557,830,-10,570,0
1558,830,-10,570,0
1559,830,-10,560,0
1560,830,-10,570,0
1561,820,-20,560,0
1562,820,-10,550,0
1563,840,-10,570,0
1564,820,-10,570,0
1565,830,-20,540,0
1566,810,0,570,0
1567,840,-50,570,0
1568,820,0,580,0
1569,850,-30,590,0
1570,840,10,600,0
1571,780,-30,590,0
1572,790,-30,540,0
1573,840,-10,580,0
1574,780,-10,610,0
1575,900,60,590,0
1576,810,-10,550,0
1577,840,0,550,0
1578,820,-20,550,0
1579,810,0,560,0
1580,840,-10,570,0
1581,840,-10,570,0
1582,840,-10,570,0
1583,830,-10,570,0
1584,830,-10,560,0
1585,820,-10,570,0
1586,820,0,570,0
1587,830,-10,550,0
1588,840,-10,570,0
1589,830,-10,570,0
1590,820,-10,570,0
1591,840,-10,560,0
1592,830,-20,560,0
1593,830,-10,570,0
1594,830,-20,560,0
1595,830,-10,560,0
1596,830,-10,560,0
1597,830,-10,560,0
1598,830,-10,560,0
1599,830,-10,560,0
1600,840,-20,570,2000
1601,830,-10,570,2000
1602,830,-10,560,2000
1603,830,-10,550,2000
1604,830,-20,560,2000
1605,830,-20,560,2000
1606,830,-20,560,2000
1607,830,-10,560,2000
1608,840,-10,570,2000
1609,840,-10,570,2000
1610,830,-20,550,2000
1611,830,-10,570,2000
1612,830,-10,560,2000
1613,830,-10,550,2000
1614,830,-10,560,2000
1615,830,-10,550,2000
1616,850,-20,570,2000
1617,830,-10,570,2000
1618,830,-10,580,2000
1619,850,-10,640,2000
1620,840,-70,650,2000
1621,880,0,840,2000
1622,830,-30,1220,2000
1623,1060,-160,1490,2000
1624,1380,-270,1540,2000
1625,1580,-350,1340,2000
1626,1480,-310,850,2000
1627,1240,-300,460,2000
1628,720,-260,210,2000
1629,190,-110,-30,2000
1630,-140,110,-120,2000
1631,-510,280,-200,2000
1632,-560,400,-260,2000
1633,-590,580,-220,2000
1634,-150,790,-50,2000
1635,150,940,200,2000
1636,870,850,650,2000
1637,1510,790,1300,2000
1638,1980,480,1350,2000
1639,2510,-40,1700,2000
1640,1930,50,2190,2000
1641,1680,140,2460,2000
1642,1360,350,2090,2000
1643,1410,390,1520,2000
1644,1050,330,990,2000
1645,860,180,460,2000
1646,350,20,-40,2000
1647,-80,-180,-360,2000
1648,60,-270,-580,2000
1649,-110,-370,-760,2000
1650,-80,-300,-900,2000
1651,90,-190,-840,2000
1652,150,20,-710,2000
1653,660,130,-450,2000
1654,990,350,170,2000
1655,1460,550,1440,2000
1656,1370,490,1790,2000
1657,1380,480,1830,2000
1658,1180,430,1560,2000
1659,1050,340,1340,2000
1660,760,250,1090,2000
1661,680,170,870,2000
1662,700,110,660,2000
1663,730,70,510,2000
1664,820,20,570,2000
1665,890,-50,590,2000
1666,800,-40,620,2000
1667,810,0,600,2000
1668,850,-10,570,2000
1669,850,-20,550,2000
1670,850,-20,550,2000
1671,850,-20,560,2000
1672,840,-20,570,2000
1673,840,0,560,2000
1674,840,-20,540,2000
1675,820,0,570,2000
1676,840,-10,550,2000
1677,790,10,580,2000
1678,810,-40,560,2000
1679,800,40,590,2000
1680,850,-10,600,2000
1681,840,-20,570,2000
1682,830,-20,600,2000
1683,880,60,640,2000
1684,770,-30,550,2000
1685,810,10,440,2000
1686,760,20,590,2000
1687,840,-20,550,2000
1688,780,50,640,2000
1689,840,20,660,2000
1690,840,-40,630,2000
1691,830,-30,500,2000
1692,830,-20,530,2000
1693,790,10,560,2000
1694,800,0,560,2000
1695,840,0,560,2000
1696,840,0,590,2000
1697,820,-20,590,2000
1698,830,-10,580,2000
1699,820,-10,570,2000
1700,810,-10,580,0
1701,800,-10,570,0
1702,810,-10,570,0
1703,820,-10,560,0
1704,800,-20,560,0
1705,830,-20,580,0
1706,830,-20,570,0
1707,830,-10,560,0
1708,840,-20,580,0
1709,830,-20,580,0
1710,830,-20,560,0
1711,830,-10,560,0
1712,830,-10,570,0
1713,830,-20,570,0
1714,830,-20,560,0
1715,840,-10,570,0
1716,830,-20,570,0
1717,830,-20,570,0
1718,820,-10,560,0
1719,820,-10,560,0
1720,830,-20,570,0
1721,830,-20,570,0
1722,830,-20,560,0
1723,840,-20,560,0
1724,820,-20,570,0
1725,820,-10,570,0
1726,840,-10,560,0
1727,830,-20,560,0
1728,840,-20,560,0
1729,830,-20,570,0
1730,830,-20,570,0
1731,830,-20,570,0
1732,820,-20,560,0
1733,830,-20,560,0
1734,820,-10,570,0
1735,830,-20,560,0
1736,840,-20,570,0
1737,840,-20,570,0
1738,830,-20,570,0
1739,830,-20,550,0
1740,840,-10,560,0
1741,820,-20,560,0
1742,830,-20,550,0
1743,840,-20,570,0
1744,830,-20,560,0
1745,830,-20,560,0
1746,840,-20,570,0
1747,830,-20,560,0
1748,840,-20,560,0
1749,840,-20,550,0
1750,830,-20,550,0
1751,830,-20,550,0
1752,830,-20,550,0
1753,850,-20,570,0
1754,820,-20,560,0
1755,840,-30,560,0
1756,840,-30,560,0
1757,830,-20,560,0
1758,830,-20,560,0
1759,840,-20,560,0
1760,830,-30,550,0
1761,830,-30,560,0
1762,840,-20,550,0
1763,840,-20,560,0
1764,840,-20,560,0
1765,840,-30,550,0
1766,830,-30,560,0
1767,840,-20,560,0
1768,840,-20,560,0
1769,820,-20,550,0
1770,840,-20,560,0
1771,830,-20,570,0
1772,840,-30,560,0
1773,830,-20,550,0
1774,840,-30,550,0
1775,830,-20,560,0
1776,830,-30,550,0
1777,830,-30,550,0
1778,840,-30,560,0
1779,840,-30,560,0
1780,830,-20,560,0
1781,840,-30,560,0
1782,840,-30,550,0
1783,840,-20,560,0
1784,830,-30,550,0
1785,830,-20,560,0
1786,830,-20,560,0
1787,830,-30,560,0
1788,830,-20,560,0
1789,840,-30,560,0
1790,840,-30,560,0
1791,840,-30,560,0
1792,830,-20,550,0
1793,840,-30,560,0
1794,830,-20,560,0
1795,840,-30,560,0
1796,840,-20,560,0
1797,840,-20,570,0
1798,830,-20,560,0
1799,830,-20,560,0
1800,840,-20,560,0
1801,830,-20,560,0
1802,830,-30,560,0
1803,850,-20,560,0
1804,840,-30,570,0
1805,840,-30,570,0
1806,840,-30,560,0
1807,840,-30,550,0
1808,830,-30,550,0
1809,830,-30,550,0
1810,840,-30,560,0
1811,840,-30,560,0
1812,840,-30,560,0
1813,840,-30,560,0
1814,830,-30,560,0
1815,830,-30,560,0
1816,840,-30,550,0
1817,840,-30,560,0
1818,830,-30,560,0
1819,840,-30,550,0
1820,840,-30,570,0
1821,840,-30,570,0
1822,840,-30,560,0
1823,840,-30,560,0
1824,830,-30,550,0
1825,840,-30,560,0
1826,830,-30,560,0
1827,840,-30,560,0
1828,830,-40,560,0
1829,840,-30,560,0
1830,840,-30,560,0
1831,830,-30,560,0
1832,820,-30,560,0
1833,830,-20,560,0
1834,830,-20,570,0
1835,830,-30,560,0
1836,840,-30,570,0
1837,840,-30,570,0
1838,830,-30,560,0
1839,840,-30,560,0
1840,830,-30,560,0
1841,830,-30,560,0
1842,830,-40,550,0
1843,800,-20,570,0
1844,840,-30,560,0
1845,800,-40,570,0
1846,800,-10,590,0
1847,830,-20,600,0
1848,840,-20,600,0
1849,820,-30,580,0
1850,800,-10,590,0
1851,780,-30,590,0
1852,810,-10,590,0
1853,810,-20,580,0
1854,780,-20,580,0
1855,800,-10,570,0
1856,770,-10,630,0
1857,830,-20,610,0
1858,810,-10,600,0
1859,770,-10,610,0
1860,830,0,610,0
1861,810,-30,550,0
1862,800,-10,560,0
1863,800,-20,570,0
1864,800,-20,590,0
1865,820,-20,590,0
1866,830,-30,580,0
1867,820,-30,590,0
1868,820,-30,590,0
1869,820,-20,590,0
1870,810,-30,580,0
1871,800,-20,570,0
1872,810,-10,570,0
1873,800,-30,580,0
1874,810,-20,590,0
1875,820,-20,590,2000
1876,830,-20,590,2000
1877,810,-30,590,2000
1878,820,-20,580,2000
1879,810,-20,580,2000
1880,800,-20,580,2000
1881,820,-20,580,2000
1882,810,-30,580,2000
1883,820,-20,580,2000
1884,830,-20,580,2000
1885,820,-30,590,2000
1886,820,-30,590,2000
1887,810,-30,580,2000
1888,810,-20,580,2000
1889,800,-20,570,2000
1890,810,-30,570,2000
1891,820,-30,600,2000
1892,790,10,630,2000
1893,860,-10,680,2000
1894,870,0,910,2000
1895,860,0,1250,2000
1896,1170,-210,1490,2000
1897,1710,-420,1590,2000
1898,1720,-460,1270,2000
1899,1410,-370,610,2000
1900,850,-230,100,2000
1901,310,-100,-10,2000
1902,-120,60,30,2000
1903,-420,310,40,2000
1904,-510,380,70,2000
1905,-350,430,20,2000
1906,-330,530,-30,2000
1907,70,740,70,2000
1908,560,840,240,2000
1909,1280,730,750,2000
1910,1580,600,910,2000
1911,2350,180,1410,2000
1912,2410,400,2100,2000
1913,1930,600,2660,2000
1914,1660,760,2310,2000
1915,1440,790,1610,2000
1916,1540,710,1100,2000
1917,1180,560,580,2000
1918,470,320,10,2000
1919,150,50,-300,2000
1920,-60,-120,-570,2000
1921,-270,-300,-740,2000
1922,-270,-400,-940,2000
1923,-270,-290,-970,2000
1924,0,-60,-870,2000
1925,400,220,-670,2000
1926,860,370,-10,2000
1927,1180,330,1210,2000
1928,1310,440,1730,2000
1929,1200,350,1700,2000
1930,1090,360,1600,2000
1931,1090,340,1470,2000
1932,920,310,1310,2000
1933,730,200,1150,2000
1934,720,110,800,2000
1935,750,20,640,2000
1936,760,-30,590,2000
1937,790,-30,620,2000
1938,770,-40,660,2000
1939,770,-40,600,2000
1940,830,-50,590,2000
1941,830,-40,580,2000
1942,780,-30,590,2000
1943,850,-30,580,2000
1944,850,-40,580,2000
1945,830,-50,580,2000
1946,800,-10,570,2000
1947,850,-90,560,2000
1948,790,30,590,2000
1949,810,-70,600,2000
1950,850,-10,540,2000
1951,770,20,620,2000
1952,820,-30,600,2000
1953,800,-50,620,2000
1954,830,20,610,2000
1955,820,-10,590,2000
1956,810,-100,510,2000
1957,760,80,510,2000
1958,830,-30,630,2000
1959,820,-20,560,2000
1960,780,-10,670,2000
1961,840,-10,700,2000
1962,850,40,610,2000
1963,780,-30,480,2000
1964,790,-10,480,2000
1965,830,-10,560,2000
1966,810,-30,590,2000
1967,860,-10,590,2000
1968,840,-20,580,2000
1969,840,-20,590,2000
1970,800,-20,570,2000
1971,800,-20,560,2000
1972,810,-10,550,2000
1973,820,-10,570,2000
1974,830,-10,580,2000
1975,830,-20,590,0
1976,840,-20,590,0
1977,830,-20,580,0
1978,840,-20,570,0
1979,840,-10,580,0
1980,820,-20,580,0
1981,810,-20,580,0
1982,830,-10,570,0
1983,810,-20,570,0
1984,830,-20,570,0
1985,820,-20,580,0
1986,820,-20,560,0
1987,830,-20,580,0
1988,830,-20,580,0
1989,810,-20,570,0
1990,830,-20,570,0
1991,830,-20,570,0
1992,820,-20,570,0
1993,830,-20,570,0
1994,830,-20,570,0
1995,840,-30,580,0
1996,820,-30,580,0
1997,830,-30,560,0
1998,840,-30,560,0
1999,820,-20,570,0
2000,820,-20,570,0
2001,830,-20,560,0
2002,830,-20,560,0
2003,830,-20,560,0
2004,830,-20,570,0
2005,830,-30,580,0
2006,840,-30,570,0
2007,830,-40,570,0
2008,830,-30,570,0
2009,830,-20,570,0
2010,830,-20,560,0
2011,830,-30,560,0
2012,830,-20,560,0
2013,840,-20,560,0
2014,830,-20,560,0
2015,840,-30,560,0
2016,830,-30,570,0
2017,840,-20,560,0
2018,840,-20,560,0
2019,830,-30,560,0
2020,840,-20,560,0
2021,840,-30,550,0
2022,830,-30,550,0
2023,840,-30,560,0
2024,850,-30,550,0
2025,840,-20,560,0
2026,840,-30,540,0
2027,830,-20,540,0
2028,850,-20,560,0
2029,840,-30,550,0
2030,840,-30,540,0
2031,840,-30,550,0
2032,830,-30,540,0
2033,850,-30,540,0
2034,840,-20,550,0
2035,840,-30,560,0
2036,850,-30,550,0
2037,840,-30,560,0
2038,840,-30,550,0
2039,840,-20,540,0
2040,840,-20,540,0
2041,840,-30,550,0
2042,840,-20,550,0
2043,840,-30,540,0
2044,840,-30,550,0
2045,840,-30,550,0
2046,840,-20,550,0
2047,850,-30,550,0
2048,850,-30,540,0
2049,850,-30,550,0
2050,840,-30,540,0
2051,850,-30,550,0
2052,840,-30,540,0
2053,840,-30,540,0
2054,840,-30,540,0
2055,840,-30,540,0
2056,850,-40,550,0
2057,840,-40,550,0
2058,840,-30,540,0
2059,850,-30,550,0
2060,840,-30,540,0
2061,840,-30,540,0
2062,840,-40,540,0
2063,850,-30,550,0
2064,840,-40,550,0
2065,850,-40,550,0
2066,840,-30,550,0
2067,840,-40,550,0
2068,840,-40,540,0
2069,850,-30,540,0
2070,850,-30,540,0
2071,850,-40,560,0
2072,840,-40,550,0
2073,840,-30,540,0
2074,850,-30,540,0
2075,840,-30,540,0
2076,840,-30,540,0
2077,840,-30,550,0
2078,840,-40,550,0
2079,840,-40,550,0
2080,850,-40,540,0
2081,840,-40,550,0
2082,840,-40,550,0
2083,850,-40,540,0
2084,840,-40,540,0
2085,840,-40,550,0
2086,850,-40,550,0
2087,840,-40,540,0
2088,850,-40,540,0
2089,850,-40,540,0
2090,840,-30,540,0
2091,840,-40,540,0
2092,850,-40,550,0
2093,840,-40,540,0
2094,840,-40,540,0
2095,850,-40,550,0
2096,840,-40,540,0
2097,840,-40,540,0
2098,840,-40,540,0
2099,840,-40,540,0
2100,850,-40,550,0
2101,840,-40,550,0
2102,840,-40,550,0
2103,850,-40,540,0
2104,840,-30,540,0
2105,840,-40,540,0
2106,840,-40,540,0
2107,840,-40,550,0
2108,850,-40,550,0
2109,850,-40,550,0
2110,840,-40,550,0
2111,840,-40,550,0
2112,840,-40,540,0
2113,840,-40,550,0
2114,840,-40,540,0
2115,850,-40,550,0
2116,840,-40,560,0
2117,840,-50,560,0
2118,840,-40,540,0
2119,850,-40,550,0
2120,830,-40,550,0
2121,840,-40,550,0
2122,840,-40,550,0
2123,840,-50,560,0
2124,840,-40,570,0
2125,830,-40,570,0
2126,830,-20,570,0
2127,830,-30,570,0
2128,780,-40,590,0
2129,820,-10,580,0
2130,840,-20,600,0
2131,770,-30,580,0
2132,820,-10,590,0
2133,770,-50,600,0
2134,760,-20,620,0
2135,790,-10,620,0
2136,800,-30,650,0
2137,800,-30,560,0
2138,780,-40,570,0
2139,820,-20,580,0
2140,830,-30,590,0
2141,810,-30,590,0
2142,800,-30,590,0
2143,820,-40,580,0
2144,810,-40,580,0
2145,800,-40,580,0
2146,790,-30,590,0
2147,830,-30,590,0
2148,810,-40,590,0
2149,810,-40,590,0
2150,810,-40,590,2000
2151,800,-30,590,2000
2152,810,-20,590,2000
2153,810,-40,580,2000
2154,810,-30,590,2000
2155,810,-40,590,2000
2156,810,-40,590,2000
2157,800,-30,590,2000
2158,800,-40,590,2000
2159,800,-40,600,2000
2160,800,-40,590,2000
2161,810,-30,590,2000
2162,800,-40,590,2000
2163,790,-30,590,2000
2164,800,-40,590,2000
2165,790,-30,590,2000
2166,810,-40,590,2000
2167,800,-30,620,2000
2168,870,-40,660,2000
2169,890,-50,860,2000
2170,840,-50,1210,2000
2171,1390,-340,1500,2000
2172,1100,-210,1470,2000
2173,1550,-380,1380,2000
2174,1460,-410,1050,2000
2175,1210,-280,620,2000
2176,770,-120,190,2000
2177,170,30,-30,2000
2178,-210,210,-130,2000
2179,-480,240,-250,2000
2180,-580,360,-330,2000
2181,-650,540,-270,2000
2182,-290,930,-150,2000
2183,270,1110,90,2000
2184,1120,1050,650,2000
2185,1460,800,1080,2000
2186,2160,440,1290,2000
2187,2180,360,1900,2000
2188,1960,400,2380,2000
2189,1750,530,2420,2000
2190,1490,580,1880,2000
2191,1530,510,1440,2000
2192,1190,470,910,2000
2193,770,330,430,2000
2194,320,120,20,2000
2195,-140,-50,-270,2000
2196,-30,-200,-480,2000
2197,-260,-310,-690,2000
2198,-260,-450,-960,2000
2199,-90,-330,-1040,2000
2200,210,-30,-830,2000
2201,690,240,-470,2000
2202,840,340,170,2000
2203,1100,470,1320,2000
2204,1310,280,1520,2000
2205,1300,290,1570,2000
2206,1300,310,1450,2000
2207,1260,270,1380,2000
2208,940,240,1240,2000
2209,770,170,1020,2000
2210,760,110,800,2000
2211,840,40,590,2000
2212,840,0,550,2000
2213,880,-30,560,2000
2214,840,-40,580,2000
2215,860,-20,550,2000
2216,870,-50,510,2000
2217,890,-50,500,2000
2218,860,-50,510,2000
2219,850,-30,520,2000
2220,860,-40,500,2000
2221,870,-40,490,2000
2222,860,-30,500,2000
2223,860,-30,500,2000
2224,850,-30,510,2000
2225,850,-20,510,2000
2226,860,-40,520,2000
2227,850,-20,530,2000
2228,840,-40,560,2000
2229,850,-20,550,2000
2230,850,-50,540,2000
2231,780,-10,580,2000
2232,860,-30,570,2000
2233,850,-40,630,2000
2234,850,0,550,2000
2235,810,-60,460,2000
2236,730,40,550,2000
2237,850,-20,600,2000
2238,860,-10,550,2000
2239,810,-30,620,2000
2240,770,0,660,2000
2241,820,-10,590,2000
2242,830,-40,500,2000
2243,800,0,510,2000
2244,830,-20,550,2000
2245,850,-20,560,2000
2246,850,-20,550,2000
2247,840,-40,550,2000
2248,850,-30,550,2000
2249,850,-40,580,2000
2250,850,-40,570,0
2251,830,-40,550,0
2252,820,-40,540,0
2253,810,-40,540,0
2254,840,-40,550,0
2255,840,-30,570,0
2256,850,-50,560,0
2257,850,-40,560,0
2258,850,-30,560,0
2259,830,-30,540,0
2260,840,-20,540,0
2261,820,-40,540,0
2262,830,-40,550,0
2263,840,-30,550,0
2264,850,-40,550,0
2265,840,-30,560,0
2266,840,-40,550,0
2267,850,-40,540,0
2268,840,-30,540,0
2269,830,-20,540,0
2270,850,-40,560,0
2271,850,-40,560,0
2272,850,-30,550,0
2273,850,-30,540,0
2274,840,-30,540,0
2275,840,-30,540,0
2276,850,-30,540,0
2277,840,-40,550,0
2278,850,-40,560,0
2279,850,-30,550,0
2280,840,-20,550,0
2281,850,-60,550,0
2282,850,-40,540,0
2283,840,-30,530,0
2284,850,-30,540,0
2285,840,-30,530,0
2286,840,-30,540,0
2287,840,-40,540,0
2288,840,-40,540,0
2289,850,-40,530,0
2290,850,-40,530,0
2291,850,-40,540,0
2292,850,-40,550,0
2293,840,-40,530,0
2294,840,-40,530,0
2295,850,-30,520,0
2296,850,-30,550,0
2297,850,-40,550,0
2298,850,-40,530,0
2299,850,-30,540,0
2300,840,-30,540,0
2301,840,-40,530,0
2302,850,-30,530,0
2303,850,-30,540,0
2304,840,-40,540,0
2305,850,-40,540,0
2306,840,-40,530,0
2307,840,-40,530,0
2308,850,-40,530,0
2309,850,-40,530,0
2310,850,-50,540,0
2311,850,-40,540,0
2312,850,-40,540,0
2313,850,-40,530,0
2314,850,-40,530,0
2315,850,-30,530,0
2316,840,-30,530,0
2317,840,-40,530,0
2318,850,-40,540,0
2319,850,-40,540,0
2320,850,-50,540,0
2321,850,-50,540,0
2322,850,-50,540,0
2323,850,-40,530,0
2324,850,-50,530,0
2325,830,-50,530,0
2326,850,-40,530,0
2327,850,-40,540,0
2328,850,-50,550,0
2329,850,-40,540,0
2330,850,-40,540,0
2331,850,-40,530,0
2332,840,-40,540,0
2333,840,-40,540,0
2334,850,-50,540,0
2335,840,-40,540,0
2336,850,-50,540,0
2337,850,-40,530,0
2338,850,-40,540,0
2339,850,-40,540,0
2340,850,-50,540,0
2341,850,-40,540,0
2342,840,-40,540,0
2343,850,-40,530,0
2344,840,-40,520,0
2345,850,-40,540,0
2346,850,-40,550,0
2347,850,-50,540,0
2348,850,-50,540,0
2349,850,-40,540,0
2350,840,-40,530,0
2351,840,-40,520,0
2352,850,-40,540,0
2353,850,-50,550,0
2354,850,-40,540,0
2355,850,-40,540,0
2356,850,-50,540,0
2357,850,-40,540,0
2358,850,-40,550,0
2359,850,-50,540,0
2360,840,-40,540,0
2361,850,-40,530,0
2362,840,-40,530,0
2363,840,-50,540,0
2364,840,-50,540,0
2365,850,-50,550,0
2366,850,-50,560,0
2367,840,-40,550,0
2368,850,-40,540,0
2369,840,-50,540,0
2370,840,-40,540,0
2371,850,-40,540,0
2372,840,-50,540,0
2373,850,-50,540,0
2374,850,-50,550,0
2375,850,-50,560,0
2376,840,-50,540,0
2377,840,-50,540,0
2378,840,-50,540,0
2379,840,-50,540,0
2380,840,-50,550,0
2381,850,-50,550,0
2382,840,-50,560,0
2383,850,-50,550,0
2384,840,-40,550,0
2385,830,-50,540,0
2386,830,-50,540,0
2387,840,-50,550,0
2388,830,-40,560,0
2389,840,-60,540,0
2390,820,-40,570,0
2391,850,-50,550,0
2392,840,-50,570,0
2393,820,-60,570,0
2394,820,-50,560,0
2395,830,-60,560,0
2396,830,-40,570,0
2397,810,-60,580,0
2398,830,-40,520,0
2399,820,-40,610,0
2400,850,-70,600,0
2401,800,-70,570,0
2402,820,-10,550,0
2403,830,-30,540,0
2404,840,-60,520,0
2405,850,-50,540,0
2406,850,-60,560,0
2407,850,-60,580,0
2408,850,-50,570,0
2409,850,-50,550,0
2410,840,-50,550,0
2411,840,-40,550,0
2412,820,-40,540,0
2413,830,-40,550,0
2414,830,-40,550,0
2415,830,-40,560,0
2416,840,-50,550,0
2417,840,-60,560,0
2418,840,-50,570,0
2419,840,-60,570,0
2420,840,-60,560,0
2421,840,-60,560,0
2422,840,-50,560,0
2423,830,-50,560,0
2424,830,-50,550,0
2425,830,-50,560,2000
2426,830,-50,560,2000
2427,840,-50,570,2000
2428,840,-60,570,2000
2429,840,-60,570,2000
2430,830,-50,560,2000
2431,840,-50,570,2000
2432,830,-50,570,2000
2433,820,-60,570,2000
2434,830,-50,570,2000
2435,830,-50,560,2000
2436,820,-50,550,2000
2437,830,-50,570,2000
2438,830,-50,580,2000
2439,820,-60,560,2000
2440,830,-60,550,2000
2441,840,-50,570,2000
2442,830,-50,590,2000
2443,830,-20,640,2000
2444,890,-80,720,2000
2445,990,-90,1040,2000
2446,1010,-130,1530,2000
2447,1290,-290,1610,2000
2448,1590,-390,1510,2000
2449,1650,-390,1170,2000
2450,1370,-260,690,2000
2451,860,-60,200,2000
2452,220,140,-170,2000
2453,-380,280,-320,2000
2454,-690,230,-430,2000
2455,-640,440,-370,2000
2456,-410,720,-190,2000
2457,-40,910,-10,2000
2458,330,930,270,2000
2459,1160,880,760,2000
2460,1610,700,1280,2000
2461,2350,200,1480,2000
2462,1970,100,1500,2000
2463,1730,150,1910,2000
2464,1400,440,2140,2000
2465,1440,460,1940,2000
2466,1580,480,1550,2000
2467,1460,390,1190,2000
2468,1140,280,650,2000
2469,670,170,130,2000
2470,40,30,-190,2000
2471,80,-140,-410,2000
2472,-330,-210,-520,2000
2473,-460,-350,-770,2000
2474,-350,-350,-960,2000
2475,-210,-140,-1000,2000
2476,290,120,-910,2000
2477,750,350,-610,2000
2478,1080,250,200,2000
2479,1590,540,1200,2000
2480,1680,440,1580,2000
2481,1660,420,1740,2000
2482,1500,430,1500,2000
2483,1290,340,1380,2000
2484,900,250,1200,2000
2485,850,120,780,2000
2486,820,20,550,2000
2487,860,-40,420,2000
2488,810,-40,420,2000
2489,900,-50,490,2000
2490,860,-50,510,2000
2491,850,-40,500,2000
2492,890,-50,470,2000
2493,870,-30,490,2000
2494,880,-60,480,2000
2495,860,-40,480,2000
2496,880,-50,480,2000
2497,880,-30,480,2000
2498,890,-30,480,2000
2499,880,-50,480,2000
2500,880,-20,480,2000
2501,850,-80,480,2000
2502,840,-10,520,2000
2503,860,-50,520,2000
2504,840,-30,490,2000
2505,850,-30,530,2000
2506,860,-60,570,2000
2507,850,-10,580,2000
2508,870,-90,470,2000
2509,850,-50,420,2000
2510,820,0,570,2000
2511,860,-40,540,2000
2512,780,-50,520,2000
2513,800,-40,550,2000
2514,870,0,500,2000
2515,840,-10,420,2000
2516,780,90,440,2000
2517,990,-110,500,2000
2518,830,0,500,2000
2519,890,-10,550,2000
2520,890,10,570,2000
2521,880,20,580,2000
2522,860,10,540,2000
2523,830,10,510,2000
2524,850,0,480,2000
2525,790,10,480,0
2526,840,0,480,0
2527,840,-10,490,0
2528,850,-20,500,0
2529,870,-10,510,0
2530,890,-20,510,0
2531,890,-10,510,0
2532,870,-10,490,0
2533,850,0,490,0
2534,850,0,490,0
2535,850,0,490,0
2536,860,10,490,0
2537,870,0,490,0
2538,860,10,490,0
2539,860,10,490,0
2540,850,10,490,0
2541,860,10,500,0
2542,860,0,490,0
2543,870,0,490,0
2544,880,0,490,0
2545,870,0,500,0
2546,870,10,490,0
2547,860,10,490,0
2548,860,20,480,0
2549,860,10,480,0
2550,860,20,480,0
2551,870,0,480,0
2552,870,0,480,0
2553,870,-10,480,0
2554,890,-10,480,0
2555,860,0,480,0
2556,870,0,480,0
2557,870,20,470,0
2558,860,10,460,0
2559,860,20,470,0
2560,870,10,480,0
2561,870,0,490,0
2562,870,10,500,0
2563,890,10,500,0
2564,870,0,480,0
2565,870,0,480,0
2566,860,0,480,0
2567,850,0,470,0
2568,860,20,470,0
2569,850,10,480,0
2570,890,-20,490,0
2571,860,0,490,0
2572,870,10,480,0
2573,870,0,480,0
2574,870,0,480,0
2575,890,0,490,0
2576,840,70,480,0
2577,880,10,500,0
2578,850,-100,470,0
2579,880,70,470,0
2580,860,-40,470,0
2581,880,0,480,0
2582,860,10,480,0
2583,870,0,490,0
2584,860,0,480,0
2585,860,0,480,0
2586,860,0,480,0
2587,860,0,480,0
2588,870,0,480,0
2589,860,0,480,0
2590,870,0,480,0
2591,870,0,480,0
2592,870,0,480,0
2593,870,-10,480,0
2594,870,-10,480,0
2595,860,0,480,0
2596,860,0,480,0
2597,860,0,470,0
2598,860,-10,470,0
2599,860,-10,480,0
2600,870,0,480,0
2601,860,0,480,0
2602,870,0,480,0
2603,870,-10,480,0
2604,860,0,480,0
2605,870,-10,480,0
2606,870,-10,480,0
2607,870,0,480,0
2608,870,-10,480,0
2609,870,-10,480,0
2610,860,-10,480,0
2611,870,-10,480,0
2612,870,-10,480,0
2613,860,-10,480,0
2614,870,0,490,0
2615,860,-10,480,0
2616,860,-10,480,0
2617,860,0,490,0
2618,860,-10,500,0
2619,860,-10,500,0
2620,850,-10,480,0
2621,850,0,520,0
2622,840,10,530,0
2623,840,-10,500,0
2624,860,0,520,0
2625,850,-10,570,0
2626,870,10,580,0
2627,820,-20,570,0
2628,880,0,500,0
2629,860,-10,460,0
2630,840,0,490,0
2631,850,-10,500,0
2632,860,-10,490,0
2633,860,-10,480,0
2634,860,-10,500,0
2635,850,-20,510,0
2636,860,-20,510,0
2637,850,-20,510,0
2638,860,-10,510,0
2639,850,-10,520,0
2640,850,-10,510,0
2641,850,-10,520,0
2642,850,-10,510,0
2643,860,-10,520,0
2644,860,-10,520,0
2645,850,-20,510,0
2646,850,-10,510,0
2647,850,-10,510,0
2648,860,-10,520,0
2649,850,-10,520,0
2650,850,-10,510,2000
2651,850,-10,500,2000
2652,850,-10,510,2000
2653,850,-10,520,2000
2654,850,-20,520,2000
2655,860,-20,520,2000
2656,860,-20,520,2000
2657,850,-10,500,2000
2658,850,-20,510,2000
2659,850,-20,520,2000
2660,860,-20,510,2000
2661,850,-10,510,2000
2662,850,-20,510,2000
2663,850,-20,500,2000
2664,860,-10,500,2000
2665,850,-20,510,2000
2666,860,-20,510,2000
2667,860,-20,520,2000
2668,860,-20,570,2000
2669,880,-30,590,2000
2670,910,50,790,2000
2671,990,30,1070,2000
2672,1250,-190,1330,2000
2673,1580,-380,1510,2000
2674,1680,-410,1360,2000
2675,1690,-440,990,2000
2676,1480,-320,510,2000
2677,920,-100,70,2000
2678,230,30,-210,2000
2679,-210,170,-290,2000
2680,-710,300,-360,2000
2681,-750,390,-330,2000
2682,-600,600,-210,2000
2683,-280,850,-20,2000
2684,160,940,160,2000
2685,940,890,700,2000
2686,1300,680,1080,2000
2687,1800,320,1290,2000
2688,1870,150,1450,2000
2689,1820,190,1980,2000
2690,1480,530,2410,2000
2691,1570,620,2350,2000
2692,1600,690,1870,2000
2693,1710,570,1390,2000
2694,1370,530,880,2000
2695,880,520,230,2000
2696,420,400,-240,2000
2697,-260,130,-470,2000
2698,-340,-200,-720,2000
2699,-510,-410,-850,2000
2700,-350,-430,-930,2000
2701,-230,-330,-910,2000
2702,40,-80,-780,2000
2703,410,-40,-570,2000
2704,650,200,-90,2000
2705,1040,180,540,2000
2706,1170,430,1450,2000
2707,1390,240,1590,2000
2708,1320,370,1520,2000
2709,1260,300,1500,2000
2710,1000,270,1470,2000
2711,860,160,1200,2000
2712,830,60,930,2000
2713,800,-10,710,2000
2714,850,-10,550,2000
2715,840,-20,550,2000
2716,790,-10,570,2000
2717,840,-30,560,2000
2718,830,-20,560,2000
2719,840,-20,560,2000
2720,850,-40,550,2000
2721,840,-40,560,2000
2722,860,-50,570,2000
2723,830,-50,540,2000
2724,850,-50,530,2000
2725,850,-40,530,2000
2726,850,-40,540,2000
2727,860,-40,540,2000
2728,840,-30,560,2000
2729,810,-50,520,2000
2730,840,-30,530,2000
2731,750,-40,570,2000
2732,840,-20,500,2000
2733,780,-10,610,2000
2734,850,-30,610,2000
2735,870,-40,650,2000
2736,840,-40,580,2000
2737,840,-80,480,2000
2738,820,10,500,2000
2739,770,-20,570,2000
2740,840,0,560,2000
2741,820,0,620,2000
2742,870,40,650,2000
2743,830,-60,570,2000
2744,820,-40,500,2000
2745,860,-20,510,2000
2746,820,-30,550,2000
2747,810,-10,530,2000
2748,830,-10,520,2000
2749,850,-10,550,2000
2750,850,-20,550,0
2751,850,-20,560,0
2752,840,-30,550,0
2753,830,-20,540,0
2754,850,-30,550,0
2755,850,-30,550,0
2756,850,-30,540,0
2757,830,-20,530,0
2758,830,-30,530,0
2759,840,-20,530,0
2760,850,-30,540,0
2761,850,-30,550,0
2762,850,-30,550,0
2763,850,-30,530,0
2764,840,-20,520,0
2765,840,-20,530,0
2766,840,-20,530,0
2767,850,-30,540,0
2768,850,-30,550,0
2769,850,-30,540,0
2770,850,-30,540,0
2771,850,-30,530,0
2772,850,-20,530,0
2773,840,-20,530,0
2774,860,-30,500,0
2775,850,-20,520,0
2776,860,-40,530,0
2777,850,-20,530,0
2778,850,-30,520,0
2779,850,-30,510,0
2780,850,-30,520,0
2781,850,-30,510,0
2782,850,-30,520,0
2783,860,-30,530,0
2784,860,-20,530,0
2785,850,-30,520,0
2786,860,-30,520,0
2787,850,-20,520,0
2788,850,-30,520,0
2789,860,-30,510,0
2790,850,-30,500,0
2791,850,-30,500,0
2792,840,-50,520,0
2793,850,-40,540,0
2794,880,-40,500,0
2795,860,-40,500,0
2796,850,-40,510,0
2797,850,-40,530,0
2798,850,-40,530,0
2799,850,-40,530,0
2800,850,-40,530,0
2801,850,-30,530,0
2802,860,-40,520,0
2803,850,-40,530,0
2804,850,-40,520,0
2805,850,-40,510,0
2806,850,-40,510,0
2807,850,-40,520,0
2808,860,-50,530,0
2809,850,-50,540,0
2810,850,-50,530,0
2811,850,-40,520,0
2812,850,-50,510,0
2813,850,-50,510,0
2814,850,-40,520,0
2815,850,-50,520,0
2816,850,-40,520,0
2817,850,-40,530,0
2818,850,-40,530,0
2819,850,-30,520,0
2820,850,-30,510,0
2821,850,-40,520,0
2822,850,-40,520,0
2823,850,-40,520,0
2824,850,-30,520,0
2825,850,-40,510,0
2826,850,-30,520,0
2827,850,-40,510,0
2828,850,-50,500,0
2829,860,-40,510,0
2830,860,-40,510,0
2831,860,-40,520,0
2832,850,-30,510,0
2833,850,-40,510,0
2834,850,-40,520,0
2835,850,-40,510,0
2836,860,-50,510,0
2837,860,-50,510,0
2838,860,-50,510,0
2839,850,-50,510,0
2840,850,-40,510,0
2841,810,0,460,0
2842,830,10,440,0
2843,850,0,430,0
2844,880,-30,430,0
2845,940,-60,450,0
2846,950,-30,450,0
2847,850,-10,480,0
2848,840,0,500,0
2849,840,-10,580,0
2850,780,0,580,0
2851,880,0,580,0
2852,880,-50,580,0
2853,830,-20,620,0
2854,730,0,660,0
2855,720,30,740,0
2856,610,40,770,0
2857,610,70,780,0
2858,660,80,800,0
2859,610,120,760,0
2860,650,150,760,0
2861,660,180,760,0
2862,660,250,810,0
2863,590,240,770,0
2864,510,250,790,0
2865,510,270,760,0
2866,470,310,750,0
2867,640,400,860,0
2868,510,460,740,0
2869,370,550,760,0
2870,430,450,780,0
2871,460,410,780,0
2872,460,470,750,0
2873,450,440,770,0
2874,450,470,750,0
2875,440,430,790,0
2876,450,440,780,0
2877,430,440,800,0
2878,430,430,790,0
2879,430,440,790,0
2880,420,420,810,0
2881,430,430,800,0
