sequence,accelx,accely,accelz,event
0,140,-60,980,0
1,130,-70,980,0
2,140,-70,980,0
3,140,-70,980,0
4,150,-70,980,0
5,150,-70,980,0
6,140,-60,980,0
7,140,-70,980,0
8,130,-70,980,0
9,140,-70,990,0
10,140,-70,980,0
11,140,-70,980,0
12,140,-70,980,0
13,140,-70,980,0
14,130,-70,980,0
15,140,-70,980,0
16,130,-70,980,0
17,130,-70,990,0
18,140,-70,990,0
19,140,-70,980,0
20,140,-70,980,0
21,130,-60,980,0
22,140,-60,980,0
23,140,-70,980,0
24,140,-70,980,0
25,130,-70,990,0
26,140,-70,980,0
27,140,-70,980,0
28,140,-60,980,0
29,130,-60,980,0
30,140,-70,980,0
31,140,-70,990,0
32,130,-70,980,0
33,140,-70,980,0
34,140,-60,980,0
35,150,-60,990,0
36,140,-60,980,0
37,150,-70,990,0
38,140,-60,980,0
39,150,-60,980,0
40,150,-60,980,0
41,120,-40,980,0
42,90,-50,980,0
43,90,-50,970,0
44,90,-40,980,0
45,120,-30,990,0
46,130,-30,990,0
47,140,-40,990,0
48,130,-50,980,0
49,150,-50,990,0
50,140,-50,990,0
51,160,-40,990,0
52,110,-30,980,0
53,110,-20,980,0
54,110,-30,980,0
55,90,-30,980,0
56,100,-20,980,0
57,90,-40,980,0
58,90,-30,1000,0
59,90,-50,990,0
60,60,-20,1000,0
61,90,-50,990,0
62,60,-40,980,0
63,80,-40,990,0
64,80,-50,980,0
65,30,-30,990,0
66,60,-40,1020,0
67,30,-50,980,0
68,30,-50,990,0
69,10,-20,980,0
70,20,-50,980,0
71,0,-40,1000,0
72,10,-30,1000,0
73,0,-30,1010,0
74,60,-60,1010,0
75,60,-50,1020,0
76,40,-20,1000,0
77,80,-20,980,0
78,90,-20,970,0
79,140,0,980,0
80,90,-20,980,0
81,90,-10,990,0
82,90,-10,990,0
83,80,-30,990,0
84,90,-10,990,0
85,90,-30,990,0
86,80,-20,1000,0
87,80,-20,990,0
88,80,-30,980,0
89,90,-10,990,0
90,80,-20,980,0
91,90,-20,980,0
92,90,-20,990,0
93,90,-20,990,0
94,80,-20,980,0
95,90,-20,990,0
96,90,-20,990,0
97,80,-20,990,0
98,80,-20,990,0
99,80,-20,990,0
100,80,-20,990,2000
101,80,-20,990,2000
102,80,-20,990,2000
103,80,-20,980,2000
104,80,-20,980,2000
105,80,-20,990,2000
106,90,-20,990,2000
107,80,-20,980,2000
108,90,-20,990,2000
109,80,-20,990,2000
110,80,-20,990,2000
111,80,-20,980,2000
112,90,-20,990,2000
113,80,-20,990,2000
114,80,-10,990,2000
115,90,-20,980,2000
116,90,-10,1000,2000
117,80,-30,1030,2000
118,60,-20,1080,2000
119,30,-60,1100,2000
120,0,-100,1120,2000
121,-150,-140,1340,2000
122,200,-310,1590,2000
123,120,-320,1680,2000
124,430,-380,1560,2000
125,470,-330,1360,2000
126,510,-350,1200,2000
127,590,-310,910,2000
128,480,-230,690,2000
129,180,-40,320,2000
130,140,200,160,2000
131,-170,360,-140,2000
132,-240,490,-70,2000
133,-400,520,-10,2000
134,20,540,290,2000
135,550,430,760,2000
136,980,280,970,2000
137,1500,250,1410,2000
138,940,90,1290,2000
139,1470,-80,1410,2000
140,840,30,1430,2000
141,1540,80,1850,2000
142,950,260,2050,2000
143,1220,400,2010,2000
144,1130,520,1660,2000
145,1180,460,1510,2000
146,950,350,1040,2000
147,700,150,530,2000
148,360,-20,70,2000
149,-200,-240,-230,2000
150,20,-310,-300,2000
151,-130,-420,-490,2000
152,-120,-400,-560,2000
153,80,-450,-600,2000
154,160,-360,-520,2000
155,580,-140,-310,2000
156,560,-100,190,2000
157,710,230,1080,2000
158,400,90,1480,2000
159,780,210,1680,2000
160,600,230,1630,2000
161,700,340,1750,2000
162,420,390,1580,2000
163,490,260,1380,2000
164,460,110,1020,2000
165,640,0,880,2000
166,550,-20,800,2000
167,590,-60,810,2000
168,570,-10,840,2000
169,600,-40,850,2000
170,580,-10,850,2000
171,580,-10,820,2000
172,590,-20,820,2000
173,600,-20,820,2000
174,610,-30,790,2000
175,580,-10,790,2000
176,590,-20,790,2000
177,580,-20,800,2000
178,590,-10,810,2000
179,600,-10,810,2000
180,570,0,790,2000
181,590,-50,800,2000
182,530,20,830,2000
183,580,-30,840,2000
184,510,10,860,2000
185,580,-10,840,2000
186,570,-30,850,2000
187,590,0,900,2000
188,540,10,880,2000
189,550,0,790,2000
190,580,0,810,2000
191,550,-20,760,2000
192,520,0,830,2000
193,550,0,890,2000
194,560,-40,890,2000
195,550,-10,850,2000
196,570,0,820,2000
197,560,-10,790,2000
198,590,0,790,2000
199,560,-10,790,2000
200,570,0,820,0
201,590,-10,840,0
202,580,-20,840,0
203,590,-10,840,0
204,580,-10,840,0
205,570,-10,810,0
206,580,-10,810,0
207,570,-10,810,0
208,580,0,830,0
209,580,-20,830,0
210,580,-10,830,0
211,580,-10,810,0
212,580,-10,820,0
213,560,-10,820,0
214,580,-10,820,0
215,570,-20,810,0
216,560,-10,820,0
217,580,-10,820,0
218,570,-10,810,0
219,580,-10,830,0
220,580,-10,820,0
221,580,-10,840,0
222,570,-20,820,0
223,570,-10,830,0
224,580,-10,820,0
225,580,-10,810,0
226,580,-10,810,0
227,570,-10,830,0
228,570,-10,820,0
229,560,-10,820,0
230,590,-10,820,0
231,580,0,820,0
232,570,-10,820,0
233,580,-10,830,0
234,580,-10,840,0
235,620,-10,820,0
236,590,0,840,0
237,570,-10,840,0
238,580,-10,820,0
239,580,0,800,0
240,580,-10,810,0
241,580,-10,810,0
242,590,-10,810,0
243,580,-10,820,0
244,580,-10,820,0
245,590,-10,820,0
246,580,-10,810,0
247,580,-10,820,0
248,590,-20,810,0
249,580,-10,810,0
250,570,-10,820,0
251,590,-20,810,0
252,580,-10,810,0
253,580,-10,820,0
254,580,-10,820,0
255,580,-10,810,0
256,580,-10,820,0
257,580,-10,820,0
258,580,-10,810,0
259,580,-10,830,0
260,580,-20,820,0
261,580,-10,810,0
262,580,-10,820,0
263,580,-10,820,0
264,580,-10,810,0
265,580,-20,830,0
266,580,-10,820,0
267,580,-10,820,0
268,580,-10,820,0
269,570,0,820,0
270,580,-10,810,0
271,580,-10,810,0
272,580,-10,820,0
273,580,-10,830,0
274,580,-10,820,0
275,580,-10,830,0
276,580,-10,830,0
277,580,-10,820,0
278,580,-10,810,0
279,580,-10,800,0
280,580,-10,810,0
281,580,-10,820,0
282,580,-10,830,0
283,580,-20,820,0
284,580,-10,820,0
285,580,-10,820,0
286,580,-20,810,0
287,570,-10,810,0
288,580,-10,830,0
289,580,-10,810,0
290,580,-10,820,0
291,580,-10,820,0
292,570,-10,820,0
293,580,-20,820,0
294,580,-10,820,0
295,580,-10,820,0
296,580,-10,820,0
297,580,-10,810,0
298,580,-10,820,0
299,580,-10,820,0
300,580,-10,810,0
301,580,-10,820,0
302,580,-10,810,0
303,580,-10,810,0
304,580,-10,830,0
305,580,-20,820,0
306,580,-10,820,0
307,580,-10,810,0
308,580,-10,820,0
309,570,-10,820,0
310,580,-10,820,0
311,570,-10,820,0
312,580,-10,820,0
313,580,-10,820,0
314,570,-10,830,0
315,580,-20,820,0
316,580,-10,810,0
317,580,-10,820,0
318,580,-10,820,0
319,580,-10,820,0
320,580,-10,820,0
321,580,-10,820,0
322,570,0,830,0
323,580,-10,830,0
324,580,-10,820,0
325,580,-10,830,0
326,560,-10,810,0
327,570,0,830,0
328,540,-20,820,0
329,580,0,840,0
330,540,-20,840,0
331,550,0,860,0
332,570,-20,840,0
333,560,0,830,0
334,530,-30,820,0
335,550,-10,820,0
336,560,40,860,0
337,560,-20,860,0
338,530,0,840,0
339,570,-20,820,0
340,510,0,880,0
341,540,-30,840,0
342,520,0,820,0
343,530,0,870,0
344,560,-20,840,0
345,530,0,840,0
346,540,0,860,0
347,540,0,870,0
348,530,-50,850,0
349,580,30,830,0
350,530,0,820,0
351,580,0,820,0
352,560,0,810,0
353,580,0,830,0
354,590,0,810,0
355,590,-10,840,0
356,560,0,830,0
357,580,-10,820,0
358,580,0,820,0
359,580,0,830,0
360,580,-10,830,0
361,580,0,820,0
362,580,-10,820,0
363,580,0,810,0
364,580,0,820,0
365,580,0,810,0
366,580,0,820,0
367,580,0,830,0
368,580,-10,820,0
369,580,0,820,0
370,580,-10,820,0
371,580,0,820,0
372,580,-10,820,0
373,570,0,810,0
374,580,0,830,0
375,580,0,810,2000
376,590,0,820,2000
377,580,0,840,2000
378,580,0,820,2000
379,580,-10,820,2000
380,580,0,820,2000
381,580,0,810,2000
382,570,0,820,2000
383,580,0,820,2000
384,580,-10,820,2000
385,570,0,830,2000
386,580,-10,820,2000
387,580,0,820,2000
388,570,0,820,2000
389,580,0,820,2000
390,580,0,820,2000
391,580,0,810,2000
392,580,0,830,2000
393,590,-10,840,2000
394,580,0,860,2000
395,590,-10,940,2000
396,590,-50,1060,2000
397,510,-130,1250,2000
398,630,-260,1570,2000
399,900,-370,1870,2000
400,1090,-420,1880,2000
401,1100,-290,1510,2000
402,1020,-120,940,2000
403,540,50,300,2000
404,230,180,-10,2000
405,-350,280,-180,2000
406,-550,230,-240,2000
407,-500,230,-190,2000
408,-440,310,-110,2000
409,-50,490,130,2000
410,180,650,470,2000
411,1000,640,1000,2000
412,960,600,1190,2000
413,1570,300,1360,2000
414,1500,200,1220,2000
415,1580,-40,1390,2000
416,1240,-50,1560,2000
417,1100,320,2020,2000
418,1230,600,2060,2000
419,1360,650,1750,2000
420,1480,630,1440,2000
421,1240,460,830,2000
422,950,200,410,2000
423,410,-10,10,2000
424,-140,-220,-240,2000
425,200,-240,-420,2000
426,-250,-290,-550,2000
427,0,-270,-660,2000
428,-150,-280,-760,2000
429,-20,-160,-640,2000
430,480,-100,-290,2000
431,640,110,320,2000
432,1130,90,1290,2000
433,1090,250,1270,2000
434,1180,270,1450,2000
435,1150,400,1390,2000
436,1040,460,1510,2000
437,870,360,1370,2000
438,790,210,1060,2000
439,800,100,780,2000
440,780,0,670,2000
441,750,-10,620,2000
442,820,-20,630,2000
443,820,-20,640,2000
444,810,0,600,2000
445,790,-10,580,2000
446,840,-40,580,2000
447,790,-40,590,2000
448,800,-30,590,2000
449,800,0,600,2000
450,800,-30,600,2000
451,770,-10,590,2000
452,810,-10,600,2000
453,790,-20,610,2000
454,770,-10,650,2000
455,750,10,620,2000
456,770,-20,660,2000
457,740,-10,640,2000
458,770,-10,670,2000
459,760,-30,670,2000
460,790,10,700,2000
461,730,0,680,2000
462,760,-100,570,2000
463,740,20,590,2000
464,770,-40,600,2000
465,730,30,670,2000
466,780,-10,730,2000
467,780,-10,740,2000
468,780,-50,630,2000
469,790,0,600,2000
470,770,-10,590,2000
471,740,10,600,2000
472,760,0,610,2000
473,780,0,630,2000
474,770,-10,620,2000
475,770,0,630,0
476,780,-10,620,0
477,770,-10,620,0
478,760,0,610,0
479,770,-10,610,0
480,780,0,630,0
481,780,-10,630,0
482,770,-10,640,0
483,780,-10,640,0
484,770,0,630,0
485,770,0,610,0
486,770,0,630,0
487,760,0,630,0
488,760,-10,610,0
489,770,-10,630,0
490,760,-10,630,0
491,770,-10,630,0
492,770,-10,630,0
493,760,-10,620,0
494,770,0,630,0
495,770,-10,630,0
496,760,-10,640,0
497,780,-10,630,0
498,760,-10,620,0
499,760,-10,630,0
500,760,-10,610,0
501,770,0,620,0
502,760,-10,630,0
503,770,-10,620,0
504,770,-10,640,0
505,770,-10,620,0
506,770,-10,620,0
507,770,-10,620,0
508,770,-10,620,0
509,770,-10,620,0
510,770,-10,620,0
511,760,-10,610,0
512,780,-10,610,0
513,770,-10,620,0
514,780,-10,620,0
515,780,-10,620,0
516,770,-10,620,0
517,780,-10,610,0
518,780,-10,610,0
519,780,-10,610,0
520,770,-10,620,0
521,780,-10,620,0
522,780,-10,610,0
523,780,-10,620,0
524,770,-10,610,0
525,780,-10,610,0
526,770,0,610,0
527,770,-10,600,0
528,780,-10,610,0
529,800,-10,610,0
530,780,-10,610,0
531,780,-10,610,0
532,780,-10,610,0
533,780,-10,600,0
534,780,-10,600,0
535,770,-10,610,0
536,780,-10,610,0
537,780,-20,600,0
538,780,-10,610,0
539,780,-10,610,0
540,780,-10,610,0
541,780,-10,610,0
542,780,-20,610,0
543,780,-20,600,0
544,780,-10,610,0
545,780,-10,610,0
546,780,-10,600,0
547,780,-10,610,0
548,780,-20,610,0
549,780,-10,610,0
550,770,-20,600,0
551,780,-10,610,0
552,770,-10,600,0
553,780,-10,600,0
554,780,-10,610,0
555,780,-20,610,0
556,780,-20,600,0
557,780,-10,600,0
558,780,-10,610,0
559,780,-10,610,0
560,780,-10,610,0
561,780,-10,610,0
562,780,-10,610,0
563,780,-10,600,0
564,780,-10,610,0
565,780,-20,610,0
566,780,-20,610,0
567,780,-20,600,0
568,790,-10,610,0
569,780,-10,600,0
570,770,-20,590,0
571,780,-10,600,0
572,780,-10,610,0
573,780,-20,600,0
574,780,-20,610,0
575,780,-10,610,0
576,780,-10,610,0
577,780,-10,600,0
578,780,-10,600,0
579,770,-10,600,0
580,780,-10,600,0
581,780,-10,610,0
582,780,-20,610,0
583,780,-20,600,0
584,780,-10,600,0
585,780,-10,610,0
586,780,-20,600,0
587,780,-20,600,0
588,780,-20,610,0
589,780,-20,610,0
590,780,-20,610,0
591,780,-20,610,0
592,780,-20,610,0
593,770,-20,610,0
594,780,-10,610,0
595,780,-20,600,0
596,770,-10,600,0
597,780,-20,610,0
598,790,-20,610,0
599,770,-20,610,0
600,780,-20,610,0
601,780,-10,600,0
602,780,-10,620,0
603,780,-20,600,0
604,760,0,610,0
605,780,-20,610,0
606,770,-10,620,0
607,790,-10,640,0
608,750,0,660,0
609,770,-10,650,0
610,750,0,650,0
611,750,-10,650,0
612,730,-10,640,0
613,730,0,650,0
614,750,0,660,0
615,750,-10,670,0
616,730,-10,660,0
617,750,0,680,0
618,730,-10,690,0
619,740,0,700,0
620,730,-10,670,0
621,740,10,670,0
622,750,-10,680,0
623,740,0,650,0
624,730,-10,620,0
625,760,10,640,0
626,750,-10,650,0
627,790,20,620,0
628,780,-20,660,0
629,770,-20,660,0
630,760,-10,630,0
631,770,-10,640,0
632,760,-10,620,0
633,760,-10,620,0
634,760,-10,620,0
635,760,0,630,0
636,760,0,630,0
637,760,-10,630,0
638,770,-10,630,0
639,760,-10,640,0
640,770,-10,640,0
641,770,-10,630,0
642,760,-10,630,0
643,770,-10,630,0
644,760,-10,620,0
645,760,-10,630,0
646,760,-10,630,0
647,750,0,640,0
648,790,-20,620,0
649,760,0,640,0
650,760,-10,650,2000
651,760,-10,620,2000
652,770,-10,610,2000
653,760,0,640,2000
654,760,0,650,2000
655,760,-20,630,2000
656,770,0,640,2000
657,770,-10,640,2000
658,770,-10,640,2000
659,760,-10,630,2000
660,760,-10,630,2000
661,770,-10,630,2000
662,770,-10,630,2000
663,770,-10,630,2000
664,760,-10,630,2000
665,760,0,630,2000
666,770,-20,620,2000
667,790,0,690,2000
668,850,0,900,2000
669,890,-110,1190,2000
670,970,-200,1520,2000
671,1300,-360,1650,2000
672,1470,-360,1610,2000
673,1380,-230,1330,2000
674,1060,-120,860,2000
675,700,-20,370,2000
676,150,140,-10,2000
677,-230,320,-160,2000
678,-550,220,-410,2000
679,-380,260,-480,2000
680,-330,480,-310,2000
681,-40,840,-50,2000
682,360,950,400,2000
683,730,1100,870,2000
684,1420,930,1220,2000
685,1600,610,1720,2000
686,1920,60,1600,2000
687,1750,210,1960,2000
688,1320,500,2350,2000
689,1350,490,2110,2000
690,1460,650,1810,2000
691,1490,610,1440,2000
692,1150,580,800,2000
693,460,270,130,2000
694,0,10,-240,2000
695,190,-110,-510,2000
696,-190,-230,-750,2000
697,-120,-360,-1040,2000
698,-30,-250,-1100,2000
699,40,-50,-970,2000
700,360,250,-740,2000
701,740,390,-140,2000
702,1220,590,1130,2000
703,1470,470,1770,2000
704,1240,580,1920,2000
705,1310,500,1860,2000
706,1100,470,1590,2000
707,780,330,1480,2000
708,730,240,1180,2000
709,680,120,790,2000
710,680,0,490,2000
711,660,20,430,2000
712,870,-30,670,2000
713,800,-60,750,2000
714,750,-30,680,2000
715,800,0,620,2000
716,820,-30,640,2000
717,770,-20,620,2000
718,780,-20,590,2000
719,770,-10,600,2000
720,740,-10,620,2000
721,770,-20,610,2000
722,780,-10,600,2000
723,760,-20,650,2000
724,760,-20,650,2000
725,750,-50,660,2000
726,750,-20,600,2000
727,770,-10,700,2000
728,780,-30,690,2000
729,760,20,690,2000
730,750,-30,640,2000
731,730,-110,580,2000
732,770,80,510,2000
733,730,-120,620,2000
734,740,30,660,2000
735,810,40,750,2000
736,780,60,750,2000
737,740,-120,630,2000
738,770,10,540,2000
739,740,-20,590,2000
740,730,-10,650,2000
741,780,0,640,2000
742,790,0,610,2000
743,770,-10,640,2000
744,780,-30,630,2000
745,760,-10,610,2000
746,770,-20,600,2000
747,770,-20,610,2000
748,780,-10,630,2000
749,780,-20,610,2000
750,770,-10,610,0
751,760,-10,610,0
752,780,-10,600,0
753,780,-10,610,0
754,790,-10,610,0
755,770,-20,610,0
756,770,-10,610,0
757,790,-10,600,0
758,770,-20,600,0
759,780,-10,600,0
760,790,-10,610,0
761,780,-20,610,0
762,790,-10,600,0
763,800,-10,600,0
764,780,-10,600,0
765,770,-10,600,0
766,800,-10,600,0
767,790,-10,600,0
768,780,-20,600,0
769,790,-10,600,0
770,790,-10,610,0
771,780,-20,600,0
772,770,-10,600,0
773,800,-10,600,0
774,760,0,630,0
775,790,-10,610,0
776,780,-20,600,0
777,780,-20,590,0
778,800,-20,590,0
779,790,-20,590,0
780,780,0,600,0
781,800,-20,600,0
782,800,-10,600,0
783,800,-20,600,0
784,790,-20,590,0
785,810,-20,600,0
786,820,-20,600,0
787,780,-20,590,0
788,780,-10,590,0
789,800,-20,590,0
790,790,-10,600,0
791,790,-20,600,0
792,790,-20,590,0
793,800,-20,590,0
794,800,-30,590,0
795,790,-20,600,0
796,800,-20,600,0
797,800,-20,600,0
798,790,-20,590,0
799,790,-20,590,0
800,800,-10,590,0
801,810,-20,590,0
802,790,10,600,0
803,790,-10,600,0
804,800,-20,600,0
805,790,-20,590,0
806,800,-30,590,0
807,790,-20,590,0
808,790,-20,600,0
809,800,-20,600,0
810,790,-20,590,0
811,810,-20,600,0
812,800,-20,600,0
813,800,-20,590,0
814,790,-20,590,0
815,790,-20,590,0
816,800,-20,590,0
817,790,-20,590,0
818,790,-20,600,0
819,790,-30,600,0
820,790,-20,600,0
821,810,-30,600,0
822,780,-20,600,0
823,760,-10,600,0
824,780,-20,600,0
825,810,-10,600,0
826,780,-20,610,0
827,780,-20,620,0
828,780,-10,610,0
829,770,-20,610,0
830,780,-10,620,0
831,770,-20,620,0
832,770,-20,630,0
833,760,-20,620,0
834,780,-10,630,0
835,760,-20,630,0
836,750,-20,620,0
837,770,-10,630,0
838,770,-20,630,0
839,760,-20,630,0
840,760,-10,630,0
841,760,-20,640,0
842,760,-20,630,0
843,770,-20,630,0
844,760,-20,620,0
845,750,-20,630,0
846,760,-20,640,0
847,770,-20,630,0
848,760,-40,650,0
849,750,-10,630,0
850,760,-10,630,0
851,740,-10,640,0
852,740,-20,650,0
853,740,-10,660,0
854,760,-20,670,0
855,750,-10,670,0
856,760,-20,650,0
857,750,-20,640,0
858,750,-20,670,0
859,750,-30,660,0
860,750,-10,650,0
861,750,-20,650,0
862,740,-10,640,0
863,750,-10,630,0
864,750,-10,660,0
865,750,-10,680,0
866,760,-20,660,0
867,760,-20,660,0
868,750,-20,650,0
869,740,-20,660,0
870,750,-20,630,0
871,750,-20,630,0
872,740,-10,650,0
873,750,-40,620,0
874,750,-10,630,0
875,740,-10,690,0
876,760,-40,690,0
877,750,-30,630,0
878,740,-20,680,0
879,750,-20,650,0
880,740,-10,670,0
881,760,-40,650,0
882,740,-10,640,0
883,750,-20,670,0
884,730,20,710,0
885,750,-40,660,0
886,770,-20,590,0
887,740,-20,630,0
888,750,-20,620,0
889,770,-10,620,0
890,780,0,630,0
891,760,0,640,0
892,760,-20,610,0
893,810,-40,630,0
894,770,-10,620,0
895,770,-10,630,0
896,780,-10,620,0
897,770,-10,610,0
898,770,-10,620,0
899,770,-10,620,0
900,770,-10,620,2000
901,770,-10,610,2000
902,770,-10,620,2000
903,780,-10,620,2000
904,770,-10,630,2000
905,780,-20,620,2000
906,770,-10,610,2000
907,770,-10,610,2000
908,770,-10,610,2000
909,770,-10,610,2000
910,770,-10,620,2000
911,770,-20,610,2000
912,770,-10,610,2000
913,780,-10,620,2000
914,770,-10,620,2000
915,780,-20,610,2000
916,770,-10,610,2000
917,770,-10,610,2000
918,780,-10,620,2000
919,840,10,710,2000
920,750,-20,870,2000
921,790,20,1210,2000
922,1130,-230,1540,2000
923,1540,-380,1740,2000
924,1630,-360,1540,2000
925,1580,-290,1120,2000
926,1170,-120,630,2000
927,630,50,140,2000
928,80,220,-220,2000
929,-170,370,-390,2000
930,-450,290,-420,2000
931,-660,330,-320,2000
932,-440,560,-140,2000
933,-240,780,20,2000
934,230,910,420,2000
935,1070,930,690,2000
936,1460,880,1160,2000
937,1720,560,1530,2000
938,2160,-50,2100,2000
939,1700,440,2340,2000
940,1430,460,2550,2000
941,1210,640,2070,2000
942,1530,610,1580,2000
943,1230,490,1080,2000
944,950,410,580,2000
945,340,130,-10,2000
946,-230,-180,-340,2000
947,40,-280,-530,2000
948,-180,-370,-670,2000
949,-70,-400,-890,2000
950,-60,-320,-960,2000
951,120,-110,-840,2000
952,490,150,-590,2000
953,590,200,-40,2000
954,1160,590,970,2000
955,1220,470,1560,2000
956,1370,590,1680,2000
957,1320,510,1630,2000
958,1130,470,1560,2000
959,860,390,1420,2000
960,790,250,1090,2000
961,770,120,830,2000
962,760,20,630,2000
963,760,-20,570,2000
964,770,-50,530,2000
965,740,-20,560,2000
966,840,-40,610,2000
967,850,-50,580,2000
968,830,-60,560,2000
969,850,-40,580,2000
970,810,-30,600,2000
971,830,-30,570,2000
972,800,-20,560,2000
973,840,-60,570,2000
974,790,-10,570,2000
975,840,-40,610,2000
976,760,0,610,2000
977,790,-40,600,2000
978,810,-30,590,2000
979,830,0,620,2000
980,770,-30,620,2000
981,820,-20,660,2000
982,770,20,640,2000
983,770,-80,570,2000
984,800,-30,500,2000
985,770,0,610,2000
986,810,-10,590,2000
987,810,0,670,2000
988,800,-10,690,2000
989,790,0,630,2000
990,810,-40,580,2000
991,790,-30,560,2000
992,780,-10,580,2000
993,770,-10,590,2000
994,790,0,600,2000
995,810,-10,590,2000
996,820,-20,600,2000
997,810,-20,600,2000
998,800,-20,590,2000
999,810,-10,590,2000
1000,800,-10,590,0
1001,830,-10,590,0
1002,810,-10,590,0
1003,800,-20,580,0
1004,790,-20,590,0
1005,820,-10,580,0
1006,830,-20,570,0
1007,790,-20,580,0
1008,830,-20,590,0
1009,830,-20,580,0
1010,820,-20,570,0
1011,810,-10,570,0
1012,830,-10,560,0
1013,810,-20,560,0
1014,830,-20,570,0
1015,840,-20,570,0
1016,820,-20,560,0
1017,840,-20,570,0
1018,820,-20,560,0
1019,830,-20,560,0
1020,840,-20,560,0
1021,830,-20,570,0
1022,840,-20,550,0
1023,830,-20,560,0
1024,840,-20,570,0
1025,830,-30,570,0
1026,820,-20,560,0
1027,830,-20,550,0
1028,820,-20,560,0
1029,830,-30,570,0
1030,820,-20,570,0
1031,830,-20,560,0
1032,820,-30,560,0
1033,830,-30,570,0
1034,830,-40,570,0
1035,820,-30,550,0
1036,830,-30,550,0
1037,830,-30,550,0
1038,840,-40,550,0
1039,840,-40,560,0
1040,850,-40,560,0
1041,840,-40,570,0
1042,840,-40,560,0
1043,840,-50,560,0
1044,830,-30,550,0
1045,840,-40,550,0
1046,840,-40,560,0
1047,840,-40,550,0
1048,840,-40,540,0
1049,830,-30,540,0
1050,840,-50,540,0
1051,840,-40,540,0
1052,840,-40,550,0
1053,850,-40,560,0
1054,840,-40,560,0
1055,850,-50,560,0
1056,840,-50,560,0
1057,840,-50,560,0
1058,830,-50,550,0
1059,840,-50,540,0
1060,840,-50,550,0
1061,850,-50,550,0
1062,840,-40,550,0
1063,840,-60,560,0
1064,830,-50,550,0
1065,830,-40,560,0
1066,840,-50,560,0
1067,840,-40,560,0
1068,830,-50,560,0
1069,830,-50,560,0
1070,830,-40,560,0
1071,830,-50,560,0
1072,830,-40,560,0
1073,830,-60,570,0
1074,820,-50,570,0
1075,820,-60,560,0
1076,840,-50,560,0
1077,830,-50,570,0
1078,830,-50,570,0
1079,830,-50,570,0
1080,840,-50,570,0
1081,830,-50,570,0
1082,830,-50,570,0
1083,830,-50,560,0
1084,830,-40,570,0
1085,830,-50,570,0
1086,820,-50,570,0
1087,820,-50,560,0
1088,830,-50,570,0
1089,830,-50,570,0
1090,830,-50,580,0
1091,810,-60,570,0
1092,830,-50,560,0
1093,830,-40,570,0
1094,820,-50,570,0
1095,820,-50,570,0
1096,820,-50,570,0
1097,840,-50,570,0
1098,830,-50,580,0
1099,810,-50,570,0
1100,840,-50,570,0
1101,820,-50,570,0
1102,830,-50,570,0
1103,820,-50,570,0
1104,820,-50,580,0
1105,830,-50,580,0
1106,820,-60,580,0
1107,820,-50,580,0
1108,830,-50,570,0
1109,830,-40,570,0
1110,820,-50,570,0
1111,820,-50,580,0
1112,820,-50,580,0
1113,820,-50,570,0
1114,830,-50,570,0
1115,820,-50,580,0
1116,820,-60,570,0
1117,830,-60,580,0
1118,830,-50,580,0
1119,820,-50,570,0
1120,810,-50,570,0
1121,820,-50,570,0
1122,820,-50,580,0
1123,830,-50,580,0
1124,830,-50,580,0
1125,840,-50,570,0
1126,810,-50,570,0
1127,820,-50,570,0
1128,830,-50,570,0
1129,820,-60,570,0
1130,820,-50,580,0
1131,830,-50,580,0
1132,830,-40,580,0
1133,820,-50,570,0
1134,820,-50,570,0
1135,820,-50,580,0
1136,830,-50,570,0
1137,820,-50,570,0
1138,820,-60,570,0
1139,830,-60,570,0
1140,830,-60,580,0
1141,820,-60,580,0
1142,830,-60,570,0
1143,830,-50,570,0
1144,830,-50,570,0
1145,830,-50,570,0
1146,820,-50,570,0
1147,820,-60,570,0
1148,810,-50,560,0
1149,820,-40,550,0
1150,850,-40,570,0
1151,810,-100,580,0
1152,910,-30,550,0
1153,840,-50,570,0
1154,790,-60,560,0
1155,850,-60,570,0
1156,850,-50,580,0
1157,810,-30,580,0
1158,810,-20,570,0
1159,810,-20,560,0
1160,810,-40,560,0
1161,820,-40,560,0
1162,840,-50,570,0
1163,850,-60,570,0
1164,850,-40,580,0
1165,840,-40,580,0
1166,830,-20,570,0
1167,810,-20,560,0
1168,820,-30,550,0
1169,820,-20,550,0
1170,830,-30,550,0
1171,840,-20,560,0
1172,820,-10,570,0
1173,820,-20,570,0
1174,830,-30,570,0
1175,840,-30,570,0
1176,840,-20,580,0
1177,830,-40,580,0
1178,850,-40,560,0
1179,870,-20,540,0
1180,860,-20,530,0
1181,840,0,540,0
1182,840,0,550,0
1183,780,0,540,0
1184,780,0,540,0
1185,860,-10,580,0
1186,850,-30,590,0
1187,820,-30,570,0
1188,840,-20,550,0
1189,840,-10,560,0
1190,810,-10,560,0
1191,830,0,550,0
1192,840,-10,550,0
1193,820,-10,560,0
1194,810,-20,580,0
1195,830,-20,570,0
1196,840,-10,580,0
1197,810,-30,570,0
1198,820,-10,600,0
1199,790,-20,600,0
1200,810,-10,600,0
1201,780,-40,580,0
1202,790,10,600,0
1203,780,-40,600,0
1204,760,0,630,0
1205,780,-40,600,0
1206,770,-20,610,0
1207,800,-40,630,0
1208,750,-10,650,0
1209,770,0,660,0
1210,770,-40,620,0
1211,760,-20,650,0
1212,770,-10,640,0
1213,770,-20,660,0
1214,790,-40,620,0
1215,780,-20,580,0
1216,770,-30,560,0
1217,770,-30,600,0
1218,790,-20,600,0
1219,800,-10,600,0
1220,810,-20,600,0
1221,790,-10,600,0
1222,800,-20,590,0
1223,790,-10,600,0
1224,790,-20,600,0
1225,790,-10,590,2000
1226,810,-10,600,2000
1227,810,-20,600,2000
1228,780,-10,600,2000
1229,800,-10,590,2000
1230,800,-10,600,2000
1231,790,-10,600,2000
1232,790,-10,590,2000
1233,800,-20,590,2000
1234,800,-10,600,2000
1235,790,-20,590,2000
1236,790,-10,590,2000
1237,800,-10,600,2000
1238,790,-20,600,2000
1239,790,-10,590,2000
1240,800,-10,590,2000
1241,790,-10,600,2000
1242,830,-10,650,2000
1243,830,-10,780,2000
1244,780,-20,1020,2000
1245,1010,-130,1330,2000
1246,1240,-230,1570,2000
1247,1580,-210,1590,2000
1248,1530,-140,1320,2000
1249,1420,-170,890,2000
1250,1100,-130,470,2000
1251,490,60,-20,2000
1252,170,250,-360,2000
1253,-320,250,-480,2000
1254,-760,290,-450,2000
1255,-670,510,-400,2000
1256,-260,940,-340,2000
1257,80,950,70,2000
1258,650,980,450,2000
1259,1740,990,980,2000
1260,1910,850,1570,2000
1261,2270,460,1830,2000
1262,1810,370,2200,2000
1263,1600,560,2350,2000
1264,1300,610,2010,2000
1265,1500,560,1660,2000
1266,1390,520,1210,2000
1267,1140,460,730,2000
1268,520,320,-30,2000
1269,-170,-30,-390,2000
1270,60,-190,-690,2000
1271,-330,-460,-910,2000
1272,-10,-340,-1020,2000
1273,-30,-130,-900,2000
1274,210,60,-690,2000
1275,440,260,-350,2000
1276,900,310,330,2000
1277,1090,550,1400,2000
1278,1270,460,1620,2000
1279,1340,460,1600,2000
1280,1160,480,1540,2000
1281,1180,450,1440,2000
1282,860,360,1240,2000
1283,740,210,920,2000
1284,820,100,700,2000
1285,810,30,550,2000
1286,850,0,560,2000
1287,850,0,570,2000
1288,820,20,600,2000
1289,860,40,580,2000
1290,850,20,570,2000
1291,840,30,550,2000
1292,850,0,540,2000
1293,820,10,550,2000
1294,850,20,560,2000
1295,830,30,570,2000
1296,850,20,550,2000
1297,820,0,540,2000
1298,810,10,560,2000
1299,810,30,570,2000
1300,830,0,590,2000
1301,730,40,590,2000
1302,840,-20,500,2000
1303,770,40,610,2000
1304,860,30,680,2000
1305,780,40,680,2000
1306,800,-20,590,2000
1307,850,-10,480,2000
1308,730,50,560,2000
1309,770,20,550,2000
1310,780,60,610,2000
1311,850,20,650,2000
1312,820,20,660,2000
1313,810,-10,560,2000
1314,800,10,520,2000
1315,830,20,580,2000
1316,820,20,570,2000
1317,840,20,540,2000
1318,840,20,570,2000
1319,850,10,570,2000
1320,850,0,570,2000
1321,840,10,550,2000
1322,850,10,560,2000
1323,830,0,550,2000
1324,820,10,530,2000
1325,840,10,540,0
1326,850,0,550,0
1327,840,0,560,0
1328,850,0,560,0
1329,840,-10,540,0
1330,830,0,550,0
1331,840,0,540,0
1332,850,0,540,0
1333,830,0,540,0
1334,850,-10,550,0
1335,840,0,550,0
1336,840,0,550,0
1337,840,0,540,0
1338,850,0,540,0
1339,840,0,540,0
1340,840,0,540,0
1341,850,0,550,0
1342,830,10,540,0
1343,850,-10,540,0
1344,840,-20,530,0
1345,840,-10,530,0
1346,840,0,540,0
1347,850,-10,540,0
1348,850,-10,540,0
1349,850,0,530,0
1350,850,-10,540,0
1351,850,-10,540,0
1352,850,-10,540,0
1353,850,-10,530,0
1354,850,-10,530,0
1355,850,-10,530,0
1356,850,-10,530,0
1357,850,-10,530,0
1358,850,-10,520,0
1359,850,-10,520,0
1360,850,-10,530,0
1361,840,-10,540,0
1362,850,-10,530,0
1363,850,-10,540,0
1364,850,-10,540,0
1365,850,-10,530,0
1366,850,-10,530,0
1367,850,-10,530,0
1368,850,-10,530,0
1369,850,-10,530,0
1370,850,-10,530,0
1371,850,-20,530,0
1372,850,-10,540,0
1373,850,-10,530,0
1374,850,-10,530,0
1375,850,-20,530,0
1376,840,-10,530,0
1377,850,-10,530,0
1378,850,-10,530,0
1379,850,-20,540,0
1380,850,-10,540,0
1381,850,-20,540,0
1382,840,-20,530,0
1383,850,-20,530,0
1384,840,-10,520,0
1385,850,-20,530,0
1386,840,-10,530,0
1387,850,-20,530,0
1388,840,-20,540,0
1389,850,-20,530,0
1390,850,-20,530,0
1391,850,-10,540,0
1392,840,-20,530,0
1393,850,-20,530,0
1394,850,-10,540,0
1395,850,-20,540,0
1396,850,-10,520,0
1397,850,-20,540,0
1398,850,-20,540,0
1399,850,-20,530,0
1400,850,-20,530,0
1401,850,-20,530,0
1402,850,-10,520,0
1403,850,-20,530,0
1404,850,-20,530,0
1405,850,-20,530,0
1406,850,-20,530,0
1407,850,-10,540,0
1408,850,-20,540,0
1409,850,-20,530,0
1410,850,-20,530,0
1411,850,-20,530,0
1412,850,-20,530,0
1413,850,-20,530,0
1414,850,-20,530,0
1415,850,-20,530,0
1416,850,-10,530,0
1417,850,-20,520,0
1418,840,-20,530,0
1419,850,-20,530,0
1420,850,-20,530,0
1421,850,-20,540,0
1422,850,-20,530,0
1423,850,-20,530,0
1424,840,-20,530,0
1425,850,-20,530,0
1426,850,-20,530,0
1427,850,-20,520,0
1428,850,-20,530,0
1429,850,-20,540,0
1430,850,-30,530,0
1431,850,-20,520,0
1432,850,-20,520,0
1433,840,-20,520,0
1434,850,-20,530,0
1435,850,-20,530,0
1436,850,-20,520,0
1437,850,-20,530,0
1438,850,-20,530,0
1439,850,-20,530,0
1440,850,-20,530,0
1441,850,-20,530,0
1442,850,-20,520,0
1443,850,-20,520,0
1444,850,-20,530,0
1445,850,-20,530,0
1446,850,-20,530,0
1447,850,-20,530,0
1448,850,-20,530,0
1449,850,-10,530,0
1450,850,-20,530,0
1451,850,-20,530,0
1452,850,-20,530,0
1453,850,-20,530,0
1454,850,-20,530,0
1455,850,-10,520,0
1456,850,-20,530,0
1457,850,-20,530,0
1458,850,-20,530,0
1459,850,-20,530,0
1460,850,-20,530,0
1461,850,-10,530,0
1462,850,-20,530,0
1463,850,-20,520,0
1464,850,-20,530,0
1465,850,-20,520,0
1466,850,-20,520,0
1467,850,-20,530,0
1468,850,-20,520,0
1469,850,-20,530,0
1470,850,-30,530,0
1471,850,-20,520,0
1472,850,-20,530,0
1473,850,-20,520,0
1474,850,-20,520,0
1475,850,-20,520,0
1476,850,-20,530,0
1477,850,-20,530,0
1478,850,-20,530,0
1479,850,-20,530,0
1480,850,-20,520,0
1481,840,-10,510,0
1482,840,-10,510,0
1483,860,-20,520,0
1484,850,-20,540,0
1485,850,-20,540,0
1486,860,-10,530,0
1487,840,-10,510,0
1488,820,-10,530,0
1489,840,0,540,0
1490,850,-10,540,0
1491,830,-10,530,0
1492,860,-10,560,0
1493,850,-20,540,0
1494,850,0,530,0
1495,840,-10,540,0
1496,850,-10,550,0
1497,840,-10,550,0
1498,840,-10,550,0
1499,840,0,550,0
1500,830,10,590,0
1501,830,-20,550,0
1502,840,-20,510,0
1503,830,-10,510,0
1504,840,-20,560,0
1505,840,-10,570,0
1506,850,-10,550,0
1507,850,-10,550,0
1508,840,-10,550,0
1509,840,-10,550,0
1510,840,-10,540,0
1511,830,0,550,0
1512,840,0,550,0
1513,850,-10,550,0
1514,840,-10,550,0
1515,850,-20,550,0
1516,840,-10,560,0
1517,840,-10,550,0
1518,830,-10,540,0
1519,840,-10,550,0
1520,840,-10,550,0
1521,840,-10,550,0
1522,850,-10,560,0
1523,840,-10,560,0
1524,840,-10,550,0
1525,840,-10,550,2000
1526,840,-20,550,2000
1527,840,-10,560,2000
1528,830,0,550,2000
1529,840,-10,550,2000
1530,830,-10,550,2000
1531,840,-10,560,2000
1532,840,-10,560,2000
1533,840,-10,550,2000
1534,840,-10,560,2000
1535,840,-10,560,2000
1536,830,-10,540,2000
1537,830,-10,550,2000
1538,840,-10,560,2000
1539,840,-10,550,2000
1540,830,-10,550,2000
1541,840,-10,550,2000
1542,840,0,580,2000
1543,730,-10,590,2000
1544,870,-20,750,2000
1545,930,20,1110,2000
1546,980,-60,1420,2000
1547,1450,-220,1620,2000
1548,1750,-240,1470,2000
1549,1590,-240,1180,2000
1550,1450,-240,730,2000
1551,1020,-110,250,2000
1552,410,10,-110,2000
1553,-30,160,-260,2000
1554,-390,160,-390,2000
1555,-530,180,-320,2000
1556,-610,240,-190,2000
1557,-430,450,-110,2000
1558,-190,730,20,2000
1559,350,810,320,2000
1560,830,940,820,2000
1561,1230,780,1100,2000
1562,1870,450,1200,2000
1563,2160,110,1670,2000
1564,1920,390,2250,2000
1565,1540,640,2570,2000
1566,1320,780,2150,2000
1567,1670,680,1760,2000
1568,1490,520,1290,2000
1569,1160,470,800,2000
1570,520,340,-10,2000
1571,-230,90,-510,2000
1572,280,-20,-740,2000
1573,-250,-200,-920,2000
1574,-40,-370,-1060,2000
1575,-100,-240,-970,2000
1576,130,-30,-860,2000
1577,390,100,-650,2000
1578,700,310,-250,2000
1579,1110,390,820,2000
1580,1320,730,1400,2000
1581,1530,590,1850,2000
1582,1220,830,1960,2000
1583,1290,650,1800,2000
1584,950,500,1470,2000
1585,770,290,1060,2000
1586,740,90,740,2000
1587,750,-10,520,2000
1588,800,-10,500,2000
1589,820,10,520,2000
1590,790,20,590,2000
1591,810,40,610,2000
1592,820,50,620,2000
1593,830,20,590,2000
1594,840,0,560,2000
1595,850,0,580,2000
1596,790,0,580,2000
1597,810,20,580,2000
1598,790,10,580,2000
1599,850,10,570,2000
1600,780,20,570,2000
1601,850,10,570,2000
1602,790,0,570,2000
1603,850,30,570,2000
1604,820,10,570,2000
1605,820,0,570,2000
1606,810,20,570,2000
1607,820,0,590,2000
1608,810,30,590,2000
1609,800,0,580,2000
1610,770,20,590,2000
1611,830,10,600,2000
1612,810,0,620,2000
1613,810,20,640,2000
1614,780,10,580,2000
1615,780,-30,490,2000
1616,780,30,570,2000
1617,750,50,590,2000
1618,790,10,610,2000
1619,830,0,610,2000
1620,840,20,600,2000
1621,830,0,580,2000
1622,810,10,560,2000
1623,790,30,560,2000
1624,800,20,550,2000
1625,820,30,570,0
1626,830,0,560,0
1627,830,0,570,0
1628,840,0,580,0
1629,840,-10,590,0
1630,850,0,590,0
1631,830,0,540,0
1632,830,0,560,0
1633,830,0,570,0
1634,840,0,560,0
1635,830,0,550,0
1636,830,0,550,0
1637,830,10,560,0
1638,830,0,550,0
1639,840,0,560,0
1640,840,0,580,0
1641,830,-10,560,0
1642,830,0,550,0
1643,850,0,560,0
1644,840,0,570,0
1645,830,0,540,0
1646,840,0,540,0
1647,830,-10,560,0
1648,850,0,550,0
1649,850,0,550,0
1650,850,0,550,0
1651,850,-10,540,0
1652,840,0,550,0
1653,840,0,560,0
1654,840,0,550,0
1655,840,0,540,0
1656,840,0,540,0
1657,850,0,540,0
1658,850,0,560,0
1659,850,0,550,0
1660,850,0,550,0
1661,850,0,540,0
1662,850,0,540,0
1663,840,-10,530,0
1664,830,0,540,0
1665,840,10,530,0
1666,850,0,520,0
1667,850,-10,530,0
1668,850,0,530,0
1669,850,0,510,0
1670,850,0,530,0
1671,850,10,540,0
1672,850,-10,520,0
1673,850,0,510,0
1674,860,-10,500,0
1675,850,0,510,0
1676,860,0,500,0
1677,850,-10,490,0
1678,860,0,500,0
1679,860,0,500,0
1680,860,-10,510,0
1681,860,-10,510,0
1682,870,0,500,0
1683,870,0,490,0
1684,860,0,490,0
1685,860,-10,490,0
1686,860,-10,490,0
1687,850,-10,480,0
1688,860,-10,490,0
1689,860,0,500,0
1690,860,-10,490,0
1691,860,-10,490,0
1692,860,0,500,0
1693,860,0,490,0
1694,870,10,500,0
1695,870,10,500,0
1696,870,0,490,0
1697,870,0,490,0
1698,880,10,480,0
1699,880,20,480,0
1700,870,10,480,0
1701,850,10,480,0
1702,850,0,480,0
1703,860,0,470,0
1704,880,0,480,0
1705,870,0,470,0
1706,870,-10,480,0
1707,860,-10,480,0
1708,870,-10,490,0
1709,870,0,480,0
1710,860,0,480,0
1711,860,10,480,0
1712,860,10,470,0
1713,860,10,470,0
1714,870,0,480,0
1715,870,0,480,0
1716,880,0,480,0
1717,890,0,470,0
1718,880,0,480,0
1719,880,0,470,0
1720,880,0,470,0
1721,880,0,470,0
1722,880,-10,470,0
1723,890,-10,470,0
1724,890,0,470,0
1725,870,0,470,0
1726,870,0,470,0
1727,880,0,470,0
1728,890,0,480,0
1729,900,-10,480,0
1730,880,-10,480,0
1731,860,-10,470,0
1732,860,0,460,0
1733,860,0,470,0
1734,860,0,470,0
1735,860,0,480,0
1736,860,-10,490,0
1737,860,-10,500,0
1738,860,0,510,0
1739,860,0,490,0
1740,850,-10,480,0
1741,850,0,480,0
1742,860,0,480,0
1743,870,-10,490,0
1744,860,-10,490,0
1745,860,-10,500,0
1746,860,0,500,0
1747,860,0,500,0
1748,870,0,490,0
1749,870,0,490,0
1750,860,0,500,0
1751,860,-10,490,0
1752,860,0,490,0
1753,860,0,490,0
1754,870,0,490,0
1755,860,0,490,0
1756,860,-10,500,0
1757,860,-10,490,0
1758,860,0,490,0
1759,860,0,490,0
1760,860,0,480,0
1761,860,0,490,0
1762,880,-10,480,0
1763,860,0,480,0
1764,860,-10,490,0
1765,860,-10,490,0
1766,870,0,490,0
1767,860,-10,480,0
1768,850,10,490,0
1769,860,-10,490,0
1770,860,0,490,0
1771,860,-10,490,0
1772,850,0,500,0
1773,850,10,530,0
1774,860,-20,510,0
1775,850,0,550,0
1776,850,0,530,0
1777,850,-20,530,0
1778,840,0,540,0
1779,850,10,560,0
1780,840,-10,530,0
1781,790,10,560,0
1782,850,0,570,0
1783,840,-20,550,0
1784,850,-10,570,0
1785,840,0,550,0
1786,830,-20,500,0
1787,850,10,530,0
1788,850,-10,540,0
1789,830,-10,530,0
1790,850,0,530,0
1791,850,0,520,0
1792,850,0,530,0
1793,850,-10,530,0
1794,850,0,540,0
1795,850,-10,530,0
1796,850,0,530,0
1797,850,0,540,0
1798,850,0,530,0
1799,850,0,540,0
1800,850,0,530,2000
1801,850,0,530,2000
1802,850,0,530,2000
1803,840,0,530,2000
1804,850,0,530,2000
1805,850,0,540,2000
1806,850,-10,540,2000
1807,850,0,530,2000
1808,850,0,530,2000
1809,850,0,520,2000
1810,850,0,530,2000
1811,850,0,530,2000
1812,850,0,530,2000
1813,850,0,530,2000
1814,850,0,530,2000
1815,850,0,540,2000
1816,850,0,520,2000
1817,850,0,560,2000
1818,930,30,620,2000
1819,920,60,860,2000
1820,800,90,1230,2000
1821,1240,-160,1510,2000
1822,1820,-340,1700,2000
1823,1850,-220,1410,2000
1824,1820,-160,980,2000
1825,1350,-70,390,2000
1826,670,40,-80,2000
1827,130,220,-420,2000
1828,-300,290,-690,2000
1829,-710,370,-790,2000
1830,-730,540,-600,2000
1831,-200,1020,-430,2000
1832,110,1050,-60,2000
1833,820,1070,450,2000
1834,1430,1070,1020,2000
1835,2080,820,1780,2000
1836,2110,500,2120,2000
1837,1900,380,2590,2000
1838,1500,500,2640,2000
1839,1300,500,1920,2000
1840,1570,450,1470,2000
1841,1290,330,1020,2000
1842,770,140,620,2000
1843,530,50,70,2000
1844,-230,-170,-230,2000
1845,470,-200,-440,2000
1846,-120,-400,-610,2000
1847,20,-410,-850,2000
1848,80,-360,-970,2000
1849,310,-30,-860,2000
1850,710,80,-460,2000
1851,710,340,370,2000
1852,1150,370,1280,2000
1853,1240,510,1530,2000
1854,1460,490,1580,2000
1855,1270,500,1520,2000
1856,1120,430,1380,2000
1857,820,360,1220,2000
1858,820,220,940,2000
1859,790,100,610,2000
1860,790,10,500,2000
1861,910,-60,530,2000
1862,870,-80,510,2000
1863,810,-20,480,2000
1864,870,20,510,2000
1865,900,20,510,2000
1866,860,-10,490,2000
1867,860,-10,470,2000
1868,910,-30,500,2000
1869,860,-20,490,2000
1870,870,-10,480,2000
1871,870,-20,490,2000
1872,870,-20,480,2000
1873,850,-20,470,2000
1874,880,-10,530,2000
1875,850,-50,490,2000
1876,850,10,490,2000
1877,840,-30,520,2000
1878,870,-20,540,2000
1879,850,-40,590,2000
1880,830,50,590,2000
1881,850,-40,530,2000
1882,820,-70,390,2000
1883,810,10,460,2000
1884,860,-40,590,2000
1885,850,0,590,2000
1886,850,-10,600,2000
1887,850,50,610,2000
1888,860,-100,490,2000
1889,850,0,460,2000
1890,840,0,480,2000
1891,820,0,530,2000
1892,860,-10,510,2000
1893,860,-10,520,2000
1894,870,-20,530,2000
1895,870,-20,520,2000
1896,850,-10,500,2000
1897,860,-10,490,2000
1898,870,-20,500,2000
1899,850,-20,490,2000
1900,860,-20,480,0
1901,860,-10,490,0
1902,860,-20,500,0
1903,850,-10,490,0
1904,870,-10,490,0
1905,870,-10,500,0
1906,860,-20,500,0
1907,860,-20,490,0
1908,860,-10,490,0
1909,860,-20,490,0
1910,860,-20,500,0
1911,860,-20,500,0
1912,860,-20,490,0
1913,860,-20,490,0
1914,860,-20,500,0
1915,860,-20,490,0
1916,860,-20,490,0
1917,870,-20,490,0
1918,860,-20,490,0
1919,900,-30,490,0
1920,850,-10,490,0
1921,820,0,530,0
1922,850,-20,490,0
1923,900,-30,470,0
1924,900,-40,470,0
1925,860,-30,480,0
1926,860,-30,480,0
1927,860,-20,480,0
1928,870,-20,480,0
1929,900,-10,480,0
1930,860,-20,480,0
1931,870,-10,480,0
1932,850,-40,480,0
1933,870,-20,480,0
1934,880,-10,480,0
1935,860,-20,480,0
1936,870,-20,480,0
1937,860,-10,480,0
1938,860,-10,480,0
1939,870,-10,480,0
1940,870,-20,480,0
1941,860,-20,490,0
1942,880,-10,490,0
1943,860,-10,490,0
1944,860,-10,490,0
1945,860,-10,480,0
1946,860,-20,480,0
1947,860,-20,480,0
1948,860,-30,480,0
1949,870,-40,480,0
1950,880,-40,480,0
1951,870,-30,480,0
1952,870,-30,480,0
1953,860,-20,480,0
1954,860,-20,490,0
1955,860,-20,480,0
1956,860,-20,480,0
1957,860,-30,480,0
1958,870,-40,480,0
1959,860,-30,480,0
1960,860,-40,480,0
1961,860,-30,480,0
1962,860,-30,480,0
1963,860,-30,480,0
1964,870,-20,490,0
1965,870,-20,480,0
1966,860,-30,480,0
1967,860,-20,480,0
1968,870,-20,480,0
1969,860,-30,480,0
1970,870,-20,490,0
1971,870,-20,480,0
1972,860,-30,480,0
1973,860,-30,480,0
1974,860,-30,480,0
1975,870,-30,480,0
1976,860,-30,480,0
1977,870,-30,480,0
1978,860,-30,490,0
1979,860,-20,480,0
1980,860,-20,480,0
1981,860,-20,480,0
1982,860,-20,480,0
1983,860,-20,480,0
1984,860,-30,490,0
1985,870,-30,480,0
1986,860,-30,480,0
1987,860,-20,480,0
1988,860,-20,480,0
1989,860,-20,490,0
1990,870,-20,480,0
1991,860,-30,480,0
1992,860,-30,480,0
1993,860,-20,480,0
1994,860,-20,480,0
1995,860,-20,490,0
1996,860,-20,480,0
1997,870,-20,480,0
1998,860,-20,480,0
1999,860,-30,480,0
2000,860,-30,480,0
2001,860,-30,480,0
2002,870,-30,490,0
2003,860,-30,480,0
2004,860,-30,480,0
2005,860,-30,490,0
2006,860,-20,480,0
2007,860,-20,480,0
2008,860,-20,490,0
2009,860,-20,480,0
2010,860,-20,480,0
2011,860,-20,480,0
2012,860,-20,490,0
2013,860,-30,480,0
2014,860,-20,490,0
2015,860,-30,490,0
2016,860,-30,490,0
2017,860,-30,490,0
2018,860,-30,490,0
2019,860,-20,490,0
2020,860,-20,480,0
2021,860,-30,480,0
2022,860,-20,480,0
2023,860,-20,490,0
2024,860,-30,480,0
2025,860,-30,480,0
2026,860,-20,480,0
2027,860,-30,490,0
2028,870,-20,490,0
2029,860,-20,480,0
2030,870,-20,490,0
2031,860,-20,500,0
2032,870,-30,490,0
2033,860,0,490,0
2034,860,-10,530,0
2035,860,-20,530,0
2036,860,-10,530,0
2037,830,-30,530,0
2038,830,0,580,0
2039,840,0,560,0
2040,830,-10,540,0
2041,800,0,560,0
2042,840,-10,550,0
2043,830,-10,570,0
2044,840,10,590,0
2045,870,20,500,0
2046,810,-20,510,0
2047,850,-30,510,0
2048,860,-10,520,0
2049,850,-20,540,0
2050,860,-10,550,0
2051,860,-10,530,0
2052,850,-20,510,0
2053,850,-10,520,0
2054,850,-10,520,0
2055,850,-10,520,0
2056,860,-10,510,0
2057,850,-10,510,0
2058,850,-20,520,0
2059,860,-10,520,0
2060,850,-20,530,0
2061,860,-20,520,0
2062,850,-10,530,0
2063,850,-10,510,0
2064,850,-10,510,0
2065,850,-10,520,0
2066,850,-20,520,0
2067,860,-10,520,0
2068,850,-20,520,0
2069,850,-20,520,0
2070,850,-10,520,0
2071,850,-20,510,0
2072,850,-10,510,0
2073,850,-20,510,0
2074,850,-10,520,0
2075,850,-20,520,2000
2076,850,-20,520,2000
2077,850,-20,520,2000
2078,860,-10,530,2000
2079,850,-20,520,2000
2080,850,-10,520,2000
2081,860,-10,500,2000
2082,850,-10,510,2000
2083,850,-10,520,2000
2084,860,-10,510,2000
2085,850,-10,520,2000
2086,860,-10,510,2000
2087,860,-20,510,2000
2088,850,-20,530,2000
2089,850,-10,520,2000
2090,850,-10,510,2000
2091,850,-10,510,2000
2092,860,-10,530,2000
2093,810,60,550,2000
2094,850,-10,610,2000
2095,830,20,690,2000
2096,850,70,870,2000
2097,990,0,1260,2000
2098,1480,-160,1560,2000
2099,1790,-200,1580,2000
2100,1830,-230,1340,2000
2101,1850,-280,850,2000
2102,1350,-180,370,2000
2103,790,90,0,2000
2104,110,380,-280,2000
2105,-400,410,-470,2000
2106,-670,190,-560,2000
2107,-800,330,-460,2000
2108,-670,490,-350,2000
2109,-440,710,-270,2000
2110,50,870,170,2000
2111,730,830,630,2000
2112,1340,870,1180,2000
2113,1940,600,1280,2000
2114,1780,350,1630,2000
2115,1820,490,1890,2000
2116,1610,610,2420,2000
2117,1620,750,2340,2000
2118,1680,750,1840,2000
2119,1580,650,1490,2000
2120,1410,600,800,2000
2121,780,480,100,2000
2122,100,80,-330,2000
2123,220,30,-550,2000
2124,-190,-260,-730,2000
2125,-320,-420,-880,2000
2126,-220,-380,-1080,2000
2127,-140,-280,-990,2000
2128,140,50,-890,2000
2129,580,240,-530,2000
2130,860,370,220,2000
2131,1220,600,1300,2000
2132,1120,550,1720,2000
2133,1250,480,1800,2000
2134,1330,390,1550,2000
2135,1100,370,1430,2000
2136,910,260,1280,2000
2137,830,150,1010,2000
2138,810,70,750,2000
2139,850,-10,670,2000
2140,820,0,600,2000
2141,780,10,580,2000
2142,820,20,580,2000
2143,810,0,580,2000
2144,800,0,570,2000
2145,870,-20,560,2000
2146,830,-10,560,2000
2147,850,-20,560,2000
2148,830,-10,560,2000
2149,840,-10,570,2000
2150,840,-10,570,2000
2151,820,-10,560,2000
2152,860,-20,540,2000
2153,840,-20,530,2000
2154,850,-20,530,2000
2155,840,-20,530,2000
2156,820,0,570,2000
2157,850,-10,590,2000
2158,850,-40,540,2000
2159,780,0,530,2000
2160,840,-30,510,2000
2161,740,0,600,2000
2162,850,0,610,2000
2163,820,0,600,2000
2164,850,-20,580,2000
2165,780,0,590,2000
2166,840,-10,610,2000
2167,820,0,610,2000
2168,850,-20,610,2000
2169,780,-10,530,2000
2170,780,0,510,2000
2171,760,0,540,2000
2172,770,60,550,2000
2173,760,0,670,2000
2174,820,40,700,2000
2175,830,-20,650,2000
2176,790,-40,550,2000
2177,830,-10,520,2000
2178,830,0,560,2000
2179,790,0,580,2000
2180,830,0,570,2000
2181,840,10,560,2000
2182,850,-10,550,2000
2183,840,-10,550,2000
2184,840,0,550,2000
2185,840,-10,540,2000
2186,860,-10,540,2000
2187,850,-10,550,2000
2188,840,-10,550,2000
2189,850,-10,550,2000
2190,840,-10,540,2000
2191,850,-10,540,2000
2192,850,0,540,2000
2193,840,-10,540,2000
2194,840,-10,540,2000
2195,850,0,540,2000
2196,850,-10,530,2000
2197,840,-20,540,2000
2198,850,-10,530,2000
2199,850,-10,530,2000
2200,840,-20,530,0
2201,850,-20,540,0
2202,850,-10,530,0
2203,850,-20,530,0
2204,840,-20,530,0
2205,850,-10,530,0
2206,850,-10,520,0
2207,850,-10,530,0
2208,850,-10,530,0
2209,850,-10,530,0
2210,850,-10,520,0
2211,850,-20,520,0
2212,850,-20,540,0
2213,860,-10,530,0
2214,850,-10,530,0
2215,850,-10,530,0
2216,850,-10,530,0
2217,850,-10,530,0
2218,850,-10,530,0
2219,850,-10,520,0
2220,850,-20,530,0
2221,850,-10,540,0
2222,850,-20,530,0
2223,840,-10,540,0
2224,850,-20,530,0
2225,850,-20,530,0
2226,840,-20,520,0
2227,850,-10,530,0
2228,850,-20,530,0
2229,850,-20,530,0
2230,850,-10,530,0
2231,850,-20,540,0
2232,850,-10,540,0
2233,850,-20,530,0
2234,840,-20,540,0
2235,850,-10,530,0
2236,840,-20,530,0
2237,850,-20,530,0
2238,850,-20,540,0
2239,850,-10,530,0
2240,850,-20,530,0
2241,840,-10,540,0
2242,840,-20,540,0
2243,850,-10,530,0
2244,850,-20,540,0
2245,850,-10,540,0
2246,840,-10,530,0
2247,850,-10,540,0
2248,850,-20,540,0
2249,840,-10,540,0
2250,850,-10,550,0
2251,840,-20,550,0
2252,840,-10,550,0
2253,850,-10,540,0
2254,850,-20,560,0
2255,840,-30,550,0
2256,850,-20,540,0
2257,840,-10,540,0
2258,830,-10,550,0
2259,840,-10,540,0
2260,840,-20,540,0
2261,840,-20,550,0
2262,850,-10,570,0
2263,840,-30,570,0
2264,830,-20,570,0
2265,830,-20,570,0
2266,830,-20,560,0
2267,820,-20,560,0
2268,830,-10,550,0
2269,820,-20,570,0
2270,820,-20,570,0
2271,840,-20,580,0
2272,830,-20,570,0
2273,820,-20,560,0
2274,830,-10,570,0
2275,830,-20,560,0
2276,820,-20,550,0
2277,830,-20,560,0
2278,830,-20,580,0
2279,830,-20,580,0
2280,840,-30,560,0
2281,850,-30,570,0
2282,830,-20,560,0
2283,850,-10,530,0
2284,830,-10,550,0
2285,830,-10,550,0
2286,830,-10,540,0
2287,850,10,540,0
2288,850,-20,550,0
2289,840,-20,560,0
2290,850,-10,540,0
2291,850,-10,530,0
2292,840,-10,530,0
2293,850,-20,530,0
2294,840,-10,540,0
2295,850,-20,550,0
2296,850,-20,530,0
2297,850,-20,530,0
2298,850,-20,540,0
2299,850,-10,540,0
2300,850,-20,530,0
2301,850,-20,530,0
2302,850,-10,530,0
2303,850,-20,540,0
2304,850,-20,540,0
2305,850,-10,530,0
2306,850,-20,550,0
2307,850,-20,540,0
2308,850,-20,520,0
2309,850,-20,530,0
2310,850,-20,530,0
2311,840,-10,530,0
2312,850,-20,540,0
2313,850,-20,530,0
2314,840,-20,530,0
2315,850,-10,540,0
2316,840,-20,540,0
2317,850,-10,540,0
2318,850,-20,530,0
2319,850,-20,530,0
2320,850,-20,540,0
2321,850,-20,530,0
2322,840,-20,530,0
2323,850,-20,540,0
2324,850,-20,540,0
2325,850,-20,530,0
2326,850,-20,530,0
2327,850,-10,530,0
2328,850,-10,520,0
2329,850,-20,530,0
2330,850,-20,530,0
2331,850,-20,540,0
2332,850,-20,530,0
2333,850,-20,520,0
2334,850,-20,530,0
2335,850,-20,520,0
2336,850,-20,520,0
2337,850,-20,530,0
2338,850,-20,530,0
2339,850,-20,530,0
2340,850,-20,540,0
2341,840,-20,520,0
2342,850,-20,520,0
2343,850,-20,530,0
2344,850,-20,520,0
2345,850,-20,530,0
2346,860,-40,540,0
2347,850,-10,540,0
2348,850,-20,560,0
2349,850,-20,530,0
2350,850,-10,550,0
2351,840,-30,560,0
2352,830,-10,570,0
2353,820,-10,570,0
2354,830,-10,560,0
2355,800,-30,530,0
2356,790,10,550,0
2357,850,-10,590,0
2358,810,-40,590,0
2359,830,-20,580,0
2360,840,-30,600,0
2361,850,-30,560,0
2362,880,-10,520,0
2363,800,-20,530,0
2364,850,-20,530,0
2365,840,-20,530,0
2366,840,-10,540,0
2367,850,-20,550,0
2368,850,-20,550,0
2369,850,-20,540,0
2370,850,-20,540,0
2371,850,-20,530,0
2372,840,-10,530,0
2373,850,-10,540,0
2374,850,-20,530,0
2375,850,-10,530,2000
2376,850,-20,530,2000
2377,850,-10,540,2000
2378,840,-20,530,2000
2379,850,-20,540,2000
2380,850,-20,540,2000
2381,850,-20,530,2000
2382,840,-10,540,2000
2383,850,-10,520,2000
2384,840,-10,530,2000
2385,840,-20,530,2000
2386,850,-10,540,2000
2387,850,-20,530,2000
2388,850,-20,540,2000
2389,850,-20,550,2000
2390,840,-20,530,2000
2391,850,-10,540,2000
2392,820,-10,560,2000
2393,880,30,740,2000
2394,860,10,1020,2000
2395,950,-90,1380,2000
2396,1390,-250,1620,2000
2397,1790,-290,1520,2000
2398,1670,-270,1230,2000
2399,1530,-230,850,2000
2400,1190,-130,390,2000
2401,460,0,-40,2000
2402,40,160,-260,2000
2403,-480,210,-500,2000
2404,-580,170,-560,2000
2405,-670,450,-470,2000
2406,-270,740,-310,2000
2407,-200,960,-60,2000
2408,440,1020,190,2000
2409,1010,1150,1030,2000
2410,1910,920,1280,2000
2411,2110,330,1460,2000
2412,2010,290,1920,2000
2413,1910,600,2660,2000
2414,1680,730,2500,2000
2415,1750,630,1880,2000
2416,1650,540,1320,2000
2417,1260,390,880,2000
2418,570,320,140,2000
2419,70,10,-420,2000
2420,-200,0,-620,2000
2421,-130,-150,-910,2000
2422,-150,-330,-1170,2000
2423,80,-130,-1260,2000
2424,130,20,-1080,2000
2425,390,410,-870,2000
2426,890,500,-180,2000
2427,1240,590,1020,2000
2428,1550,540,1590,2000
2429,1590,370,1540,2000
2430,1370,470,1560,2000
2431,1310,370,1450,2000
2432,1020,380,1330,2000
2433,870,310,1120,2000
2434,930,220,900,2000
2435,920,70,640,2000
2436,900,-20,470,2000
2437,850,-50,430,2000
2438,840,-30,420,2000
2439,840,-20,450,2000
2440,880,-20,470,2000
2441,920,10,500,2000
2442,910,-10,520,2000
2443,900,-10,530,2000
2444,890,-10,500,2000
2445,860,-10,480,2000
2446,880,-10,470,2000
2447,860,-10,470,2000
2448,860,-20,470,2000
2449,860,0,480,2000
2450,870,-40,510,2000
2451,850,-40,480,2000
2452,900,-10,480,2000
2453,840,-40,490,2000
2454,850,-30,480,2000
2455,860,0,510,2000
2456,890,-40,520,2000
2457,870,-60,540,2000
2458,880,30,580,2000
2459,860,-60,480,2000
2460,850,-40,420,2000
2461,840,10,520,2000
2462,860,-30,540,2000
2463,840,-20,500,2000
2464,880,-40,530,2000
2465,880,-20,570,2000
2466,860,50,560,2000
2467,850,-60,480,2000
2468,830,0,470,2000
2469,850,0,470,2000
2470,850,-10,490,2000
2471,860,-20,490,2000
2472,870,-20,490,2000
2473,870,-30,490,2000
2474,870,-40,500,2000
2475,850,-30,500,0
2476,860,-30,490,0
2477,860,-30,480,0
2478,860,-30,490,0
2479,850,-30,480,0
2480,860,-30,480,0
2481,870,-20,490,0
2482,860,-30,480,0
2483,870,-20,480,0
2484,870,-30,480,0
2485,860,-20,480,0
2486,870,-40,470,0
2487,870,-30,480,0
2488,870,-20,480,0
2489,870,-40,480,0
2490,870,-40,470,0
2491,860,-30,480,0
2492,860,-40,480,0
2493,880,-30,480,0
2494,860,-40,480,0
2495,870,-30,480,0
2496,870,-30,480,0
2497,870,-40,480,0
2498,870,-30,480,0
2499,870,-40,470,0
2500,870,-30,470,0
2501,880,-30,480,0
2502,870,-30,480,0
2503,870,-30,480,0
2504,860,-30,480,0
2505,870,-30,480,0
2506,880,-30,480,0
2507,860,-30,480,0
2508,860,-30,480,0
2509,870,-30,480,0
2510,860,-40,470,0
2511,860,-40,470,0
2512,860,-30,480,0
2513,870,-30,480,0
2514,870,-30,480,0
2515,870,-40,490,0
2516,870,-50,490,0
2517,860,-30,490,0
2518,870,-20,480,0
2519,860,-30,480,0
2520,860,-30,490,0
2521,860,-30,480,0
2522,860,-30,480,0
2523,860,-40,490,0
2524,860,-30,490,0
2525,860,-30,480,0
2526,860,-30,490,0
2527,860,-40,500,0
2528,860,-30,490,0
2529,840,-10,480,0
2530,860,-50,480,0
2531,900,-10,470,0
2532,860,-10,470,0
2533,860,-20,480,0
2534,880,-50,490,0
2535,900,-50,500,0
2536,880,-10,500,0
2537,850,0,500,0
2538,850,0,490,0
2539,850,0,480,0
2540,850,-20,480,0
2541,860,-40,480,0
2542,890,-40,480,0
2543,910,-50,480,0
2544,900,-40,480,0
2545,870,-20,480,0
2546,870,-10,480,0
2547,860,0,470,0
2548,860,0,480,0
2549,860,-10,470,0
2550,870,-20,470,0
2551,880,-30,470,0
2552,880,-20,470,0
2553,880,-20,460,0
2554,870,-10,470,0
2555,860,0,480,0
2556,890,0,480,0
2557,870,-10,480,0
2558,880,-10,490,0
2559,880,0,500,0
2560,870,-10,500,0
2561,880,-20,500,0
2562,870,-20,490,0
2563,890,-20,490,0
2564,870,0,490,0
2565,850,0,490,0
2566,850,0,510,0
2567,830,0,520,0
2568,850,0,520,0
2569,830,10,530,0
2570,840,-10,540,0
2571,830,-10,530,0
2572,830,-10,530,0
2573,840,-10,540,0
2574,850,-20,540,0
2575,850,-10,560,0
2576,840,-10,560,0
2577,840,0,570,0
2578,840,0,570,0
2579,830,-10,570,0
2580,840,0,570,0
2581,800,-10,570,0
2582,830,-20,580,0
2583,820,0,580,0
2584,780,-10,580,0
2585,800,-10,580,0
2586,800,-10,590,0
2587,810,-10,600,0
2588,790,-20,600,0
2589,790,-20,600,0
2590,790,-10,590,0
2591,780,-10,590,0
2592,790,-10,600,0
2593,770,-10,610,0
2594,780,0,610,0
2595,780,-10,610,0
2596,770,-10,610,0
2597,780,-10,620,0
2598,770,-10,620,0
2599,770,-10,630,0
2600,780,-10,620,0
2601,760,-10,610,0
2602,760,0,620,0
2603,770,-10,620,0
2604,770,-20,630,0
2605,780,0,650,0
2606,770,-10,660,0
2607,770,-10,660,0
2608,750,0,640,0
2609,750,-10,610,0
2610,810,10,610,0
2611,750,-10,610,0
2612,800,0,610,0
2613,770,-10,600,0
2614,770,-10,620,0
2615,790,-10,620,0
2616,780,-10,610,0
2617,780,-10,620,0
2618,780,-10,610,0
2619,780,0,610,0
2620,780,-10,610,0
2621,790,0,610,0
2622,780,-10,610,0
2623,790,-10,610,0
2624,790,-10,610,0
2625,780,-10,610,2000
2626,790,0,600,2000
2627,780,-10,610,2000
2628,770,-10,610,2000
2629,780,-10,610,2000
2630,790,-10,610,2000
2631,780,-10,610,2000
2632,780,-10,610,2000
2633,790,0,610,2000
2634,790,-10,600,2000
2635,780,-10,620,2000
2636,780,0,610,2000
2637,780,-10,610,2000
2638,780,0,610,2000
2639,780,-10,610,2000
2640,770,0,620,2000
2641,790,-20,630,2000
2642,780,30,700,2000
2643,780,0,900,2000
2644,850,0,1260,2000
2645,1210,-170,1540,2000
2646,1630,-300,1640,2000
2647,1650,-280,1460,2000
2648,1570,-250,1030,2000
2649,1200,-170,590,2000
2650,770,-70,200,2000
2651,110,0,-110,2000
2652,-140,210,-250,2000
2653,-500,240,-430,2000
2654,-600,300,-420,2000
2655,-560,530,-320,2000
2656,-370,780,-240,2000
2657,70,980,80,2000
2658,710,1060,360,2000
2659,1390,1110,1060,2000
2660,2210,800,1670,2000
2661,2150,400,2460,2000
2662,1790,730,2770,2000
2663,1410,710,2420,2000
2664,1460,670,1760,2000
2665,1550,560,1380,2000
2666,1050,440,890,2000
2667,620,240,320,2000
2668,60,-80,-220,2000
2669,-70,-230,-450,2000
2670,-140,-330,-630,2000
2671,-230,-400,-770,2000
2672,-30,-370,-900,2000
2673,40,-220,-840,2000
2674,270,30,-760,2000
2675,550,150,-300,2000
2676,780,360,570,2000
2677,950,530,1530,2000
2678,1280,340,1570,2000
2679,1100,430,1590,2000
2680,1320,370,1430,2000
2681,1090,370,1370,2000
2682,870,220,1320,2000
2683,780,180,1040,2000
2684,760,100,710,2000
2685,760,10,580,2000
2686,720,-10,550,2000
2687,800,10,620,2000
2688,810,-10,660,2000
2689,820,0,630,2000
2690,860,-10,620,2000
2691,830,-30,600,2000
2692,770,-10,610,2000
2693,760,0,610,2000
2694,780,-10,610,2000
2695,790,30,600,2000
2696,760,-10,590,2000
2697,790,-20,600,2000
2698,770,-60,600,2000
2699,820,10,600,2000
2700,800,0,600,2000
2701,820,10,620,2000
2702,800,-10,620,2000
2703,770,20,620,2000
2704,780,-20,620,2000
2705,750,20,620,2000
2706,740,-20,640,2000
2707,740,30,620,2000
2708,760,10,670,2000
2709,790,0,700,2000
2710,750,-20,720,2000
2711,750,-10,630,2000
2712,740,-40,590,2000
2713,740,50,620,2000
2714,740,30,690,2000
2715,730,10,650,2000
2716,750,-20,670,2000
2717,780,30,730,2000
2718,750,-10,670,2000
2719,780,-20,610,2000
2720,760,0,590,2000
2721,740,0,630,2000
2722,770,0,630,2000
2723,770,0,630,2000
2724,780,0,650,2000
2725,770,-10,620,0
2726,770,0,620,0
2727,770,0,610,0
2728,770,-10,630,0
2729,770,-20,620,0
2730,780,-20,630,0
2731,790,-20,620,0
2732,770,-20,610,0
2733,770,-10,610,0
2734,770,-10,610,0
2735,770,-10,620,0
2736,770,-10,620,0
2737,780,-20,610,0
2738,780,-10,610,0
2739,780,0,620,0
2740,790,-20,620,0
2741,780,-10,620,0
2742,780,0,620,0
2743,790,-20,600,0
2744,780,-10,600,0
2745,780,-10,610,0
2746,780,-10,610,0
2747,780,-10,610,0
2748,780,-20,600,0
2749,790,-20,600,0
2750,780,-10,610,0
2751,780,-20,620,0
2752,790,-10,610,0
2753,790,-10,610,0
2754,780,-10,610,0
2755,770,-10,610,0
2756,780,-10,610,0
2757,780,-20,610,0
2758,780,-10,610,0
2759,780,-20,610,0
2760,780,-10,610,0
2761,780,-20,620,0
2762,770,-20,620,0
2763,780,-20,610,0
2764,780,-10,620,0
2765,760,-20,600,0
2766,770,-10,620,0
2767,770,-10,630,0
2768,770,-20,620,0
2769,780,-20,620,0
2770,780,-20,620,0
2771,770,-20,620,0
2772,770,-20,620,0
2773,770,-10,620,0
2774,770,-20,620,0
2775,770,-20,620,0
2776,770,-20,610,0
2777,770,-10,620,0
2778,760,-20,610,0
2779,780,-20,620,0
2780,780,-20,610,0
2781,770,0,610,0
2782,780,0,610,0
2783,780,0,620,0
2784,780,-10,610,0
2785,770,-20,620,0
2786,790,-10,610,0
2787,790,-20,610,0
2788,780,-20,610,0
2789,780,-10,600,0
2790,780,-10,600,0
2791,780,-10,610,0
2792,790,-20,620,0
2793,780,-20,610,0
2794,780,-20,610,0
2795,780,-10,600,0
2796,780,-10,600,0
2797,780,-10,610,0
2798,780,-10,610,0
2799,780,-20,610,0
2800,780,-20,610,0
2801,790,-20,600,0
2802,790,-20,610,0
2803,780,-20,610,0
2804,780,-30,610,0
2805,790,-20,600,0
2806,790,-20,600,0
2807,780,-20,610,0
2808,780,-20,600,0
2809,790,-20,600,0
2810,800,-30,610,0
2811,790,-20,610,0
2812,780,-20,600,0
2813,790,-20,600,0
2814,780,-20,600,0
2815,790,-30,600,0
2816,790,-20,600,0
2817,790,-30,600,0
2818,780,-20,600,0
2819,790,-20,600,0
2820,790,-30,600,0
2821,790,-20,600,0
2822,780,-20,610,0
2823,790,-20,600,0
2824,790,-20,600,0
2825,790,-20,610,0
2826,790,-30,600,0
2827,790,-20,600,0
2828,790,-20,610,0
2829,800,-20,610,0
2830,780,-20,600,0
2831,790,-20,600,0
2832,790,-20,600,0
2833,780,-20,600,0
2834,790,-20,600,0
2835,790,-10,600,0
2836,790,-20,610,0
2837,790,-20,610,0
2838,790,-20,600,0
2839,780,-20,600,0
2840,790,-20,600,0
2841,790,-20,600,0
2842,790,-30,610,0
2843,790,-20,610,0
2844,780,-20,600,0
2845,780,-20,600,0
2846,780,-20,610,0
2847,790,-40,610,0
2848,780,-20,630,0
2849,820,-40,630,0
2850,770,-20,610,0
2851,790,-10,620,0
2852,760,-10,650,0
2853,760,-40,620,0
2854,740,0,630,0
2855,770,-40,630,0
2856,740,10,670,0
2857,750,-40,660,0
2858,760,-20,660,0
2859,740,-20,680,0
2860,730,20,700,0
2861,760,-20,650,0
2862,760,-20,590,0
2863,760,-20,600,0
2864,760,-10,640,0
2865,780,-20,640,0
2866,780,-10,630,0
2867,780,-20,630,0
2868,770,-20,620,0
2869,770,-10,610,0
2870,770,-20,610,0
2871,770,-10,630,0
2872,770,-10,620,0
2873,780,-20,620,0
2874,770,-10,630,0
2875,770,-10,610,2000
2876,770,-20,620,2000
2877,770,-20,630,2000
2878,770,-20,620,2000
2879,780,-20,620,2000
2880,770,-20,620,2000
2881,770,-10,620,2000
2882,770,-20,610,2000
2883,770,-20,620,2000
2884,780,-10,620,2000
2885,770,-20,630,2000
2886,770,-10,630,2000
2887,770,-10,620,2000
2888,780,-20,610,2000
2889,760,-10,640,2000
2890,740,10,630,2000
2891,760,-10,710,2000
2892,780,10,920,2000
2893,680,10,1220,2000
2894,1040,-150,1500,2000
2895,1690,-370,1710,2000
2896,1780,-360,1530,2000
2897,1870,-340,1110,2000
2898,1470,-150,610,2000
2899,990,-120,190,2000
2900,470,210,-220,2000
2901,-270,370,-350,2000
2902,-510,270,-390,2000
2903,-790,230,-300,2000
2904,-810,410,-180,2000
2905,-550,660,-120,2000
2906,-320,860,-50,2000
2907,250,870,210,2000
2908,980,750,590,2000
2909,1640,550,1220,2000
2910,1790,350,1420,2000
2911,2190,50,2000,2000
2912,1850,380,2630,2000
2913,1620,540,2800,2000
2914,1330,630,2210,2000
2915,1440,500,1670,2000
2916,1240,430,1190,2000
2917,930,290,490,2000
2918,350,110,-70,2000
2919,140,-10,-380,2000
2920,80,-200,-600,2000
2921,-260,-370,-730,2000
2922,-210,-400,-970,2000
2923,-130,-290,-1010,2000
2924,90,-50,-900,2000
2925,350,210,-700,2000
2926,740,320,-230,2000
2927,940,510,770,2000
2928,1390,490,1710,2000
2929,1150,480,1790,2000
2930,1310,380,1810,2000
2931,1220,350,1560,2000
2932,1000,260,1420,2000
2933,730,170,1190,2000
2934,730,80,910,2000
2935,730,10,700,2000
2936,790,-20,640,2000
2937,740,0,660,2000
2938,760,0,690,2000
2939,730,-10,650,2000
2940,770,-30,610,2000
2941,770,-30,610,2000
2942,770,-20,630,2000
2943,760,-20,620,2000
2944,740,0,650,2000
2945,770,-30,660,2000
2946,780,0,670,2000
2947,780,-10,660,2000
2948,770,-40,630,2000
2949,720,0,610,2000
2950,740,0,660,2000
2951,730,-30,680,2000
2952,740,-10,650,2000
2953,810,-40,670,2000
2954,740,-20,720,2000
2955,790,-30,730,2000
2956,740,-10,740,2000
2957,730,0,630,2000
2958,740,-20,530,2000
2959,700,0,620,2000
2960,740,-10,640,2000
2961,740,10,730,2000
2962,760,0,740,2000
2963,750,-20,740,2000
2964,810,-10,610,2000
2965,790,-20,590,2000
2966,770,-20,640,2000
2967,740,-10,640,2000
2968,760,-10,620,2000
2969,770,-20,620,2000
2970,770,-20,620,2000
2971,780,-30,630,2000
2972,770,-30,600,2000
2973,780,-20,600,2000
2974,770,-20,620,2000
2975,760,-30,610,0
2976,790,-40,620,0
2977,790,-40,610,0
2978,780,-40,600,0
2979,770,-40,600,0
2980,780,-20,600,0
2981,790,-30,620,0
2982,790,-50,610,0
2983,780,-40,610,0
2984,790,-40,610,0
2985,780,-40,600,0
2986,790,-30,610,0
2987,800,-50,610,0
2988,800,-30,610,0
2989,780,-40,600,0
2990,790,-30,600,0
2991,780,-40,600,0
2992,790,-40,610,0
2993,790,-30,600,0
2994,790,-40,600,0
2995,790,-40,600,0
2996,790,-40,610,0
2997,800,-30,610,0
2998,780,-40,610,0
2999,800,-40,600,0
3000,780,-30,600,0
3001,780,-40,600,0
3002,790,-40,600,0
3003,790,-40,600,0
3004,780,-30,600,0
3005,780,-20,620,0
3006,780,-20,620,0
3007,780,-20,600,0
3008,770,-20,600,0
3009,780,-30,610,0
3010,780,-40,610,0
3011,790,-40,620,0
3012,780,-30,620,0
3013,780,-30,620,0
3014,760,-30,600,0
3015,780,-30,600,0
3016,770,-20,610,0
3017,780,-20,620,0
3018,770,-30,640,0
3019,770,-40,630,0
3020,780,-20,650,0
3021,780,-30,630,0
3022,770,-20,640,0
3023,770,-30,610,0
3024,780,-10,630,0
3025,760,-30,630,0
3026,770,-20,640,0
3027,780,-30,620,0
3028,770,-20,630,0
3029,770,-20,640,0
3030,770,-30,630,0
3031,770,-20,620,0
3032,770,-30,630,0
3033,760,-30,630,0
3034,770,-40,620,0
3035,780,-20,620,0
3036,780,-20,620,0
3037,760,-20,620,0
3038,780,-20,640,0
3039,770,-30,630,0
3040,760,-40,620,0
3041,790,-10,620,0
3042,770,-10,600,0
3043,780,20,600,0
3044,820,0,620,0
3045,770,-40,610,0
3046,790,-10,600,0
3047,780,-30,600,0
3048,780,-20,610,0
3049,780,-30,610,0
3050,790,-20,600,0
3051,780,-20,600,0
3052,780,-20,610,0
3053,780,-20,610,0
3054,780,-20,600,0
3055,770,-20,610,0
3056,780,-10,600,0
3057,780,-20,600,0
3058,780,-20,610,0
3059,790,-20,610,0
3060,780,-20,600,0
3061,790,-20,600,0
3062,780,-20,600,0
3063,790,-20,600,0
3064,770,-10,610,0
3065,780,-20,610,0
3066,780,-20,610,0
3067,770,-10,610,0
3068,770,-10,650,0
3069,780,-20,620,0
3070,780,-20,620,0
3071,770,-10,660,0
3072,760,-20,640,0
3073,760,-10,630,0
3074,750,-20,630,0
3075,730,-10,650,0
3076,750,-10,650,0
3077,750,-10,680,0
3078,750,-30,660,0
3079,760,-20,670,0
3080,740,-10,690,0
3081,760,-20,660,0
3082,740,-30,650,0
3083,690,0,650,0
3084,750,0,660,0
3085,760,-20,600,0
3086,790,-20,600,0
3087,800,-10,630,0
3088,770,-30,640,0
3089,770,-30,650,0
3090,810,0,620,0
3091,790,-40,610,0
3092,770,-20,610,0
3093,780,-20,610,0
3094,780,-20,620,0
3095,780,-30,610,0
3096,780,-20,600,0
3097,780,-20,600,0
3098,780,-20,610,0
3099,780,-30,610,0
