sequence,accelx,accely,accelz,event
0,0.68,-0.06,0.74,0
1,0.2,0.0,0.98,0
2,0.2,0.0,0.98,0
3,0.2,0.0,0.97,0
4,0.2,0.0,0.97,0
5,0.2,0.0,0.98,0
6,0.21,0.0,0.98,0
7,0.2,0.0,0.98,0
8,0.2,-0.01,0.98,0
9,0.2,0.0,0.98,0
10,0.21,-0.01,0.98,0
11,0.2,0.0,0.98,0
12,0.2,0.0,0.98,0
13,0.2,0.0,0.98,0
14,0.2,0.0,0.98,0
15,0.21,-0.01,0.98,0
16,0.2,-0.01,0.98,0
17,0.2,0.0,0.98,0
18,0.2,0.0,0.98,0
19,0.2,0.0,0.98,0
20,0.2,0.0,0.98,0
21,0.2,-0.01,0.98,0
22,0.2,0.0,0.98,0
23,0.2,0.0,0.98,0
24,0.2,-0.01,0.98,0
25,0.19,0.0,0.98,0
26,0.2,0.0,0.98,0
27,0.2,0.0,0.98,0
28,0.2,0.0,0.98,0
29,0.2,0.0,0.98,0
30,0.2,0.0,0.98,0
31,0.19,0.0,0.98,0
32,0.19,0.0,0.98,0
33,0.2,0.0,0.99,0
34,0.2,0.0,0.98,0
35,0.2,0.0,0.98,0
36,0.2,0.0,0.97,0
37,0.2,0.0,0.98,0
38,0.2,0.0,0.98,0
39,0.19,0.0,0.98,0
40,0.2,0.0,0.98,0
41,0.2,0.0,0.98,0
42,0.2,0.0,0.98,0
43,0.18,0.0,0.98,0
44,0.2,0.0,0.98,0
45,0.18,0.01,0.98,0
46,0.18,0.01,0.98,0
47,0.19,0.01,0.98,0
48,0.16,0.01,0.98,0
49,0.18,-0.01,0.98,0
50,0.12,0.01,0.98,0
51,0.14,0.01,0.97,0
52,0.17,0.01,0.99,0
53,0.2,-0.01,0.99,0
54,0.16,0.01,0.98,0
55,0.12,0.0,0.98,0
56,0.1,0.02,0.98,0
57,0.16,0.02,1.01,0
58,0.1,0.01,0.99,0
59,0.14,-0.03,0.98,0
60,0.09,0.03,1.0,0
61,0.0,0.04,1.0,0
62,0.05,0.04,1.02,0
63,0.04,0.01,1.03,0
64,0.11,0.0,1.0,0
65,0.18,0.01,1.0,0
66,0.11,0.01,0.96,0
67,0.17,0.02,0.97,0
68,0.19,0.02,0.97,0
69,0.21,0.01,0.97,0
70,0.21,0.01,0.98,0
71,0.19,0.01,0.98,0
72,0.19,0.0,0.98,0
73,0.19,0.01,0.99,0
74,0.19,0.01,0.98,0
75,0.21,0.0,0.99,2
76,0.2,0.01,0.98,2
77,0.21,0.01,0.98,2
78,0.21,0.01,0.97,2
79,0.2,0.01,0.97,2
80,0.2,0.0,0.97,2
81,0.2,0.01,0.98,2
82,0.2,0.01,0.98,2
83,0.21,0.01,0.99,2
84,0.2,0.01,0.98,2
85,0.2,0.01,0.98,2
86,0.2,0.01,0.98,2
87,0.21,0.01,0.98,2
88,0.19,0.01,0.97,2
89,0.21,0.01,0.98,2
90,0.2,0.01,0.98,2
91,0.19,0.03,0.98,2
92,0.18,0.04,0.98,2
93,0.23,0.06,1.01,2
94,0.17,0.17,0.93,2
95,0.19,0.25,0.89,2
96,0.29,0.28,0.81,2
97,0.28,0.31,0.92,2
98,0.33,0.28,0.97,2
99,0.27,0.29,1.03,2
100,0.3,0.25,1.19,2
101,0.32,0.21,1.36,2
102,0.3,0.12,1.5,2
103,0.39,0.03,1.54,2
104,0.68,-0.11,1.56,2
105,0.51,-0.23,1.49,2
106,0.49,-0.24,1.31,2
107,0.63,-0.29,1.12,2
108,0.56,-0.27,0.79,2
109,0.63,-0.38,0.59,2
110,0.46,-0.39,0.45,2
111,0.29,-0.35,0.43,2
112,0.19,-0.28,0.37,2
113,0.06,-0.19,0.38,2
114,-0.11,-0.12,0.42,2
115,-0.26,-0.01,0.48,2
116,-0.29,-0.03,0.62,2
117,-0.36,-0.04,0.74,2
118,-0.29,0.0,0.88,2
119,-0.27,-0.02,0.91,2
120,-0.13,-0.05,0.95,2
121,-0.16,0.02,1.09,2
122,-0.03,-0.03,1.18,2
123,-0.01,-0.05,1.28,2
124,-0.02,-0.05,1.28,2
125,0.22,-0.06,1.3,2
126,0.1,-0.08,1.26,2
127,0.26,-0.06,1.22,2
128,0.22,-0.09,1.14,2
129,0.3,-0.12,1.08,2
130,0.27,-0.08,1.04,2
131,0.24,-0.08,1.0,2
132,0.21,-0.04,0.97,2
133,0.21,-0.01,0.97,2
134,0.22,0.02,0.98,2
135,0.23,0.01,1.01,2
136,0.26,0.0,0.99,2
137,0.21,0.01,0.98,2
138,0.26,0.02,0.98,2
139,0.24,0.03,0.97,2
140,0.24,0.04,0.98,2
141,0.29,0.02,0.97,2
142,0.26,0.01,0.97,2
143,0.26,0.03,0.97,2
144,0.22,0.01,0.95,2
145,0.26,0.03,0.99,2
146,0.26,0.03,0.96,2
147,0.15,0.05,0.97,2
148,0.22,0.03,0.98,2
149,0.24,0.05,1.03,2
150,0.23,0.03,1.05,2
151,0.16,0.07,1.01,2
152,0.26,-0.03,0.94,2
153,0.18,0.09,0.9,2
154,0.29,0.02,0.92,2
155,0.15,0.07,0.96,2
156,0.24,0.07,1.05,2
157,0.15,0.09,1.05,2
158,0.2,-0.01,1.01,2
159,0.32,0.04,0.96,2
160,0.26,0.0,0.96,2
161,0.26,0.0,0.96,2
162,0.24,0.01,0.96,2
163,0.29,0.0,0.95,2
164,0.28,0.0,0.94,2
165,0.31,-0.01,0.97,2
166,0.28,-0.01,0.96,2
167,0.27,-0.01,0.96,2
168,0.26,0.0,0.96,2
169,0.27,-0.01,0.97,2
170,0.28,-0.02,0.98,2
171,0.28,-0.01,0.98,2
172,0.26,-0.02,0.98,2
173,0.28,-0.03,0.95,2
174,0.28,-0.04,0.96,2
175,0.27,-0.05,0.96,0
176,0.29,-0.05,0.97,0
177,0.26,-0.03,0.97,0
178,0.28,-0.05,0.97,0
179,0.28,-0.06,0.97,0
180,0.29,-0.06,0.97,0
181,0.29,-0.06,0.97,0
182,0.3,-0.06,0.97,0
183,0.32,-0.05,0.97,0
184,0.32,-0.06,0.96,0
185,0.33,-0.06,0.96,0
186,0.32,-0.06,0.95,0
187,0.33,-0.07,0.95,0
188,0.34,-0.08,0.95,0
189,0.35,-0.08,0.95,0
190,0.35,-0.07,0.95,0
191,0.36,-0.07,0.95,0
192,0.36,-0.08,0.95,0
193,0.36,-0.07,0.95,0
194,0.36,-0.06,0.95,0
195,0.38,-0.07,0.94,0
196,0.37,-0.07,0.94,0
197,0.38,-0.06,0.94,0
198,0.39,-0.07,0.94,0
199,0.4,-0.07,0.94,0
200,0.38,-0.06,0.94,0
201,0.4,-0.07,0.93,0
202,0.39,-0.07,0.94,0
203,0.4,-0.08,0.95,0
204,0.39,-0.08,0.94,0
205,0.37,-0.1,0.93,0
206,0.39,-0.09,0.93,0
207,0.41,-0.08,0.94,0
208,0.39,-0.07,0.95,0
209,0.37,-0.08,0.93,0
210,0.37,-0.1,0.92,0
211,0.39,-0.1,0.94,0
212,0.4,-0.07,0.95,0
213,0.39,-0.06,0.95,0
214,0.36,-0.06,0.93,0
215,0.36,-0.07,0.92,0
216,0.37,-0.07,0.95,0
217,0.39,-0.07,0.96,0
218,0.38,-0.06,0.95,0
219,0.36,-0.06,0.93,0
220,0.35,-0.08,0.91,0
221,0.37,-0.1,0.92,0
222,0.4,-0.07,0.95,0
223,0.4,-0.06,0.96,0
224,0.36,-0.05,0.96,0
225,0.36,-0.06,0.94,0
226,0.36,-0.08,0.93,0
227,0.36,-0.08,0.94,0
228,0.39,-0.08,0.96,0
229,0.37,-0.07,0.95,0
230,0.37,-0.08,0.93,0
231,0.36,-0.09,0.91,0
232,0.36,-0.12,0.91,0
233,0.38,-0.13,0.93,0
234,0.41,-0.13,0.94,0
235,0.42,-0.12,0.95,0
236,0.41,-0.1,0.95,0
237,0.36,-0.08,0.94,0
238,0.36,-0.09,0.93,0
239,0.36,-0.1,0.93,0
240,0.41,-0.1,0.96,0
241,0.4,-0.08,0.96,0
242,0.37,-0.09,0.94,0
243,0.35,-0.12,0.89,0
244,0.35,-0.13,0.9,0
245,0.37,-0.12,0.95,0
246,0.41,-0.13,0.97,0
247,0.39,-0.11,0.95,0
248,0.36,-0.09,0.92,0
249,0.36,-0.09,0.91,0
250,0.36,-0.06,0.93,0
251,0.41,-0.07,0.96,0
252,0.39,-0.07,0.96,0
253,0.36,-0.07,0.94,0
254,0.36,-0.09,0.93,0
255,0.35,-0.1,0.91,0
256,0.37,-0.12,0.94,0
257,0.4,-0.13,0.96,0
258,0.38,-0.12,0.95,0
259,0.38,-0.12,0.92,0
260,0.37,-0.11,0.91,0
261,0.39,-0.1,0.93,0
262,0.39,-0.08,0.94,0
263,0.39,-0.06,0.95,0
264,0.36,-0.05,0.93,0
265,0.37,-0.07,0.92,0
266,0.38,-0.08,0.94,0
267,0.39,-0.08,0.95,0
268,0.39,-0.09,0.95,0
269,0.38,-0.09,0.94,0
270,0.37,-0.09,0.92,0
271,0.37,-0.1,0.93,0
272,0.38,-0.09,0.94,0
273,0.39,-0.08,0.94,0
274,0.38,-0.07,0.94,0
275,0.38,-0.07,0.94,0
276,0.37,-0.07,0.94,0
277,0.36,-0.06,0.94,0
278,0.37,-0.07,0.94,0
279,0.38,-0.07,0.95,0
280,0.37,-0.07,0.94,0
281,0.38,-0.08,0.93,0
282,0.37,-0.08,0.92,0
283,0.36,-0.07,0.93,0
284,0.36,-0.06,0.93,0
285,0.4,-0.06,0.94,0
286,0.32,-0.06,0.93,0
287,0.38,-0.08,0.97,0
288,0.3,-0.06,0.94,0
289,0.34,-0.07,0.94,0
290,0.35,-0.06,0.92,0
291,0.35,-0.07,0.97,0
292,0.36,-0.06,0.97,0
293,0.35,-0.08,0.97,0
294,0.37,-0.05,0.97,0
295,0.41,-0.07,0.96,0
296,0.34,-0.07,0.93,0
297,0.44,-0.05,0.92,0
298,0.37,-0.06,0.92,0
299,0.39,-0.06,0.91,0
300,0.41,-0.04,0.9,0
301,0.38,-0.06,0.92,0
302,0.38,-0.05,0.92,0
303,0.4,-0.07,0.94,0
304,0.37,-0.06,0.94,0
305,0.39,-0.06,0.94,0
306,0.39,-0.07,0.94,0
307,0.37,-0.06,0.94,0
308,0.39,-0.06,0.94,0
309,0.38,-0.06,0.94,0
310,0.38,-0.06,0.94,0
311,0.38,-0.06,0.93,0
312,0.4,-0.06,0.93,0
313,0.38,-0.06,0.93,0
314,0.39,-0.06,0.93,0
315,0.39,-0.06,0.94,0
316,0.39,-0.06,0.94,0
317,0.38,-0.07,0.94,0
318,0.39,-0.07,0.93,0
319,0.39,-0.06,0.94,0
320,0.38,-0.07,0.94,0
321,0.38,-0.07,0.94,0
322,0.38,-0.06,0.94,0
323,0.39,-0.06,0.94,0
324,0.39,-0.06,0.93,0
325,0.39,-0.06,0.93,2
326,0.39,-0.06,0.93,2
327,0.39,-0.06,0.94,2
328,0.38,-0.06,0.94,2
329,0.38,-0.06,0.94,2
330,0.38,-0.06,0.94,2
331,0.39,-0.06,0.94,2
332,0.38,-0.06,0.93,2
333,0.39,-0.06,0.94,2
334,0.38,-0.07,0.94,2
335,0.39,-0.06,0.93,2
336,0.38,-0.06,0.94,2
337,0.39,-0.06,0.93,2
338,0.38,-0.06,0.93,2
339,0.4,-0.06,0.94,2
340,0.38,-0.06,0.93,2
341,0.39,-0.06,0.92,2
342,0.43,-0.07,0.91,2
343,0.38,0.03,0.9,2
344,0.41,0.09,0.9,2
345,0.35,0.16,0.9,2
346,0.29,0.22,0.92,2
347,0.31,0.27,0.97,2
348,0.35,0.27,1.04,2
349,0.36,0.25,1.12,2
350,0.32,0.19,1.33,2
351,0.22,0.06,1.5,2
352,0.22,0.0,1.69,2
353,0.42,-0.09,1.76,2
354,0.49,-0.19,1.68,2
355,0.58,-0.24,1.41,2
356,0.83,-0.22,1.07,2
357,0.84,-0.2,0.74,2
358,0.89,-0.25,0.46,2
359,0.73,-0.19,0.3,2
360,0.39,-0.11,0.14,2
361,0.11,-0.01,0.14,2
362,-0.02,0.07,0.22,2
363,-0.24,0.07,0.38,2
364,-0.16,0.05,0.55,2
365,-0.25,0.07,0.73,2
366,-0.2,0.09,0.97,2
367,-0.15,0.11,1.06,2
368,-0.01,0.02,1.09,2
369,0.18,0.0,1.23,2
370,0.13,-0.01,1.28,2
371,0.33,0.0,1.41,2
372,0.23,-0.02,1.37,2
373,0.47,-0.06,1.37,2
374,0.4,-0.14,1.15,2
375,0.55,-0.18,1.11,2
376,0.53,-0.13,1.0,2
377,0.5,-0.12,0.96,2
378,0.53,-0.08,0.95,2
379,0.52,-0.04,0.91,2
380,0.51,-0.02,0.89,2
381,0.52,-0.05,0.85,2
382,0.51,-0.02,0.84,2
383,0.53,-0.02,0.85,2
384,0.5,0.0,0.86,2
385,0.52,0.01,0.87,2
386,0.48,0.05,0.87,2
387,0.5,0.05,0.86,2
388,0.5,0.03,0.87,2
389,0.52,0.01,0.87,2
390,0.52,0.01,0.87,2
391,0.52,0.01,0.87,2
392,0.5,0.03,0.87,2
393,0.53,0.03,0.86,2
394,0.55,0.0,0.85,2
395,0.48,0.02,0.83,2
396,0.46,-0.02,0.8,2
397,0.52,0.06,0.91,2
398,0.47,0.0,0.91,2
399,0.52,0.03,0.91,2
400,0.5,0.01,0.92,2
401,0.51,0.02,0.93,2
402,0.48,0.0,0.86,2
403,0.5,0.02,0.76,2
404,0.5,0.04,0.86,2
405,0.47,0.02,0.86,2
406,0.53,0.03,0.88,2
407,0.53,0.02,0.92,2
408,0.51,0.04,0.95,2
409,0.51,0.02,0.89,2
410,0.59,-0.01,0.84,2
411,0.39,0.07,0.79,2
412,0.59,-0.01,0.84,2
413,0.53,0.02,0.83,2
414,0.53,0.02,0.82,2
415,0.57,0.01,0.83,2
416,0.53,0.02,0.84,2
417,0.55,0.02,0.85,2
418,0.53,0.02,0.85,2
419,0.52,0.02,0.86,2
420,0.54,0.01,0.86,2
421,0.53,0.02,0.85,2
422,0.54,0.01,0.86,2
423,0.55,0.02,0.85,2
424,0.53,0.01,0.84,2
425,0.54,0.01,0.85,0
426,0.53,0.01,0.85,0
427,0.53,0.01,0.85,0
428,0.54,0.01,0.85,0
429,0.55,0.01,0.85,0
430,0.54,0.01,0.85,0
431,0.54,0.01,0.85,0
432,0.53,0.01,0.86,0
433,0.53,0.01,0.86,0
434,0.54,0.01,0.85,0
435,0.53,0.01,0.86,0
436,0.55,0.01,0.85,0
437,0.53,0.01,0.84,0
438,0.53,0.01,0.85,0
439,0.54,0.01,0.85,0
440,0.53,0.01,0.85,0
441,0.53,0.0,0.85,0
442,0.54,0.0,0.85,0
443,0.54,0.0,0.85,0
444,0.54,-0.01,0.85,0
445,0.54,-0.01,0.84,0
446,0.54,-0.02,0.82,0
447,0.55,-0.02,0.83,0
448,0.55,-0.01,0.82,0
449,0.56,-0.01,0.83,0
450,0.54,0.0,0.83,0
451,0.55,0.01,0.85,0
452,0.56,0.02,0.86,0
453,0.54,0.02,0.86,0
454,0.58,0.0,0.85,0
455,0.57,0.0,0.84,0
456,0.57,0.0,0.84,0
457,0.58,0.0,0.83,0
458,0.56,-0.01,0.83,0
459,0.57,-0.01,0.83,0
460,0.57,-0.01,0.83,0
461,0.57,-0.01,0.84,0
462,0.57,-0.01,0.83,0
463,0.57,-0.01,0.83,0
464,0.57,-0.01,0.83,0
465,0.56,-0.01,0.83,0
466,0.58,-0.02,0.83,0
467,0.57,-0.01,0.83,0
468,0.57,-0.02,0.84,0
469,0.58,-0.02,0.83,0
470,0.57,-0.02,0.83,0
471,0.57,-0.02,0.83,0
472,0.57,-0.03,0.82,0
473,0.57,-0.02,0.83,0
474,0.57,-0.02,0.82,0
475,0.57,-0.02,0.83,0
476,0.57,-0.02,0.83,0
477,0.58,-0.02,0.82,0
478,0.57,-0.02,0.83,0
479,0.58,-0.02,0.83,0
480,0.58,-0.02,0.82,0
481,0.58,-0.02,0.83,0
482,0.58,-0.02,0.83,0
483,0.58,-0.03,0.83,0
484,0.58,-0.02,0.83,0
485,0.58,-0.02,0.82,0
486,0.57,-0.02,0.83,0
487,0.58,-0.02,0.82,0
488,0.57,-0.02,0.82,0
489,0.58,-0.03,0.82,0
490,0.58,-0.02,0.84,0
491,0.58,-0.03,0.84,0
492,0.56,-0.02,0.83,0
493,0.57,-0.02,0.83,0
494,0.58,-0.03,0.83,0
495,0.57,-0.02,0.83,0
496,0.58,-0.02,0.83,0
497,0.57,-0.03,0.83,0
498,0.57,-0.02,0.83,0
499,0.57,-0.02,0.83,0
500,0.58,-0.03,0.83,0
501,0.57,-0.02,0.83,0
502,0.57,-0.02,0.83,0
503,0.57,-0.03,0.83,0
504,0.57,-0.02,0.83,0
505,0.57,-0.02,0.83,0
506,0.57,-0.03,0.83,0
507,0.58,-0.03,0.83,0
508,0.57,-0.02,0.82,0
509,0.58,-0.03,0.83,0
510,0.57,-0.02,0.83,0
511,0.57,-0.03,0.82,0
512,0.58,-0.03,0.83,0
513,0.58,-0.03,0.83,0
514,0.57,-0.02,0.83,0
515,0.58,-0.03,0.82,0
516,0.57,-0.02,0.83,0
517,0.58,-0.03,0.84,0
518,0.58,-0.03,0.83,0
519,0.57,-0.02,0.83,0
520,0.58,-0.03,0.83,0
521,0.58,-0.03,0.83,0
522,0.57,-0.03,0.82,0
523,0.58,-0.04,0.83,0
524,0.57,-0.03,0.83,0
525,0.57,-0.02,0.83,0
526,0.57,-0.03,0.83,0
527,0.57,-0.02,0.83,0
528,0.57,-0.03,0.83,0
529,0.57,-0.03,0.83,0
530,0.57,-0.03,0.83,0
531,0.57,-0.04,0.84,0
532,0.56,-0.03,0.84,0
533,0.57,-0.03,0.83,0
534,0.57,-0.03,0.83,0
535,0.56,-0.03,0.82,0
536,0.57,-0.03,0.83,0
537,0.57,-0.03,0.84,0
538,0.56,-0.03,0.83,0
539,0.56,-0.04,0.84,0
540,0.56,-0.03,0.84,0
541,0.56,-0.03,0.83,0
542,0.56,-0.04,0.83,0
543,0.57,-0.03,0.83,0
544,0.57,-0.03,0.84,0
545,0.56,-0.03,0.83,0
546,0.56,-0.04,0.83,0
547,0.56,-0.03,0.83,0
548,0.57,-0.03,0.84,0
549,0.57,-0.03,0.84,0
550,0.55,-0.04,0.84,0
551,0.56,-0.03,0.83,0
552,0.58,-0.03,0.84,0
553,0.57,-0.02,0.84,0
554,0.56,-0.04,0.83,0
555,0.57,-0.04,0.83,0
556,0.56,-0.03,0.83,0
557,0.57,-0.03,0.84,0
558,0.57,-0.03,0.84,0
559,0.57,-0.03,0.84,0
560,0.56,-0.03,0.84,0
561,0.57,-0.03,0.83,0
562,0.57,-0.03,0.83,0
563,0.57,-0.03,0.83,0
564,0.57,-0.03,0.83,0
565,0.56,-0.03,0.83,0
566,0.56,-0.03,0.83,0
567,0.57,-0.03,0.83,0
568,0.57,-0.03,0.83,0
569,0.56,-0.03,0.84,0
570,0.56,-0.04,0.83,0
571,0.55,-0.03,0.83,0
572,0.57,-0.04,0.84,0
573,0.54,-0.03,0.83,0
574,0.57,-0.04,0.83,0
575,0.53,-0.02,0.83,0
576,0.55,-0.03,0.85,0
577,0.54,-0.04,0.83,0
578,0.57,-0.02,0.85,0
579,0.53,-0.03,0.84,0
580,0.59,-0.03,0.87,0
581,0.51,-0.07,0.84,0
582,0.51,-0.01,0.82,0
583,0.54,-0.05,0.85,0
584,0.53,-0.02,0.85,0
585,0.52,-0.03,0.88,0
586,0.52,-0.04,0.88,0
587,0.51,-0.02,0.88,0
588,0.58,-0.04,0.86,0
589,0.55,-0.04,0.83,0
590,0.53,-0.03,0.82,0
591,0.57,-0.04,0.82,0
592,0.54,-0.02,0.82,0
593,0.58,-0.02,0.82,0
594,0.58,-0.02,0.82,0
595,0.54,-0.04,0.81,0
596,0.58,-0.04,0.83,0
597,0.58,-0.04,0.85,0
598,0.58,-0.03,0.84,0
599,0.57,-0.02,0.83,0
600,0.58,-0.03,0.83,2
601,0.57,-0.03,0.83,2
602,0.57,-0.04,0.82,2
603,0.57,-0.04,0.82,2
604,0.57,-0.03,0.82,2
605,0.57,-0.03,0.83,2
606,0.55,-0.03,0.83,2
607,0.57,-0.03,0.83,2
608,0.57,-0.03,0.83,2
609,0.57,-0.03,0.83,2
610,0.56,-0.03,0.83,2
611,0.57,-0.03,0.84,2
612,0.57,-0.03,0.84,2
613,0.57,-0.03,0.83,2
614,0.57,-0.04,0.82,2
615,0.57,-0.03,0.82,2
616,0.57,-0.03,0.82,2
617,0.57,-0.03,0.81,2
618,0.58,-0.02,0.8,2
619,0.57,0.01,0.84,2
620,0.58,0.05,0.82,2
621,0.5,0.12,0.77,2
622,0.46,0.23,0.85,2
623,0.48,0.26,0.94,2
624,0.49,0.23,1.11,2
625,0.46,0.17,1.35,2
626,0.46,0.1,1.48,2
627,0.57,0.01,1.56,2
628,0.67,-0.1,1.61,2
629,0.76,-0.25,1.55,2
630,0.86,-0.25,1.29,2
631,0.88,-0.3,0.92,2
632,0.83,-0.32,0.64,2
633,0.64,-0.38,0.38,2
634,0.48,-0.39,0.25,2
635,0.31,-0.28,0.16,2
636,0.16,-0.23,0.12,2
637,0.01,-0.12,0.21,2
638,-0.15,-0.07,0.37,2
639,-0.14,-0.01,0.59,2
640,-0.25,-0.02,0.72,2
641,-0.08,-0.02,0.85,2
642,-0.05,0.02,0.96,2
643,0.05,-0.03,0.95,2
644,0.18,0.02,1.11,2
645,0.25,-0.05,1.22,2
646,0.24,0.0,1.25,2
647,0.36,-0.11,1.23,2
648,0.47,-0.13,1.17,2
649,0.48,-0.15,1.13,2
650,0.53,-0.2,1.01,2
651,0.66,-0.23,0.98,2
652,0.53,-0.23,0.85,2
653,0.74,-0.18,0.89,2
654,0.62,-0.13,0.84,2
655,0.73,-0.08,0.87,2
656,0.72,-0.07,0.86,2
657,0.63,-0.02,0.83,2
658,0.68,-0.03,0.85,2
659,0.6,0.0,0.81,2
660,0.63,-0.01,0.79,2
661,0.58,0.03,0.74,2
662,0.68,0.01,0.78,2
663,0.68,-0.02,0.79,2
664,0.65,-0.01,0.75,2
665,0.66,0.0,0.75,2
666,0.65,0.01,0.75,2
667,0.68,0.01,0.78,2
668,0.67,0.03,0.77,2
669,0.66,0.02,0.75,2
670,0.66,0.01,0.74,2
671,0.66,0.03,0.75,2
672,0.67,-0.01,0.76,2
673,0.58,0.05,0.72,2
674,0.66,-0.01,0.75,2
675,0.56,0.08,0.74,2
676,0.71,0.0,0.84,2
677,0.6,0.02,0.84,2
678,0.6,0.05,0.87,2
679,0.61,0.09,0.86,2
680,0.64,0.0,0.76,2
681,0.69,0.03,0.64,2
682,0.57,0.05,0.75,2
683,0.65,0.04,0.77,2
684,0.59,0.06,0.82,2
685,0.62,0.08,0.82,2
686,0.63,0.02,0.81,2
687,0.68,0.04,0.74,2
688,0.66,0.04,0.74,2
689,0.67,0.03,0.75,2
690,0.62,0.05,0.74,2
691,0.71,0.01,0.73,2
692,0.67,0.05,0.74,2
693,0.68,0.04,0.75,2
694,0.67,0.03,0.74,2
695,0.7,0.03,0.74,2
696,0.67,0.03,0.74,2
697,0.68,0.02,0.74,2
698,0.68,0.03,0.74,2
699,0.68,0.03,0.74,2
700,0.68,0.02,0.74,0
701,0.69,0.02,0.73,0
702,0.69,0.03,0.73,0
703,0.69,0.04,0.74,0
704,0.69,0.03,0.74,0
705,0.69,0.03,0.74,0
706,0.68,0.03,0.74,0
707,0.7,0.02,0.74,0
708,0.7,0.02,0.73,0
709,0.68,0.02,0.74,0
710,0.69,0.02,0.73,0
711,0.7,0.01,0.74,0
712,0.69,0.02,0.74,0
713,0.68,0.02,0.73,0
714,0.71,0.02,0.74,0
715,0.68,0.02,0.74,0
716,0.68,0.02,0.74,0
717,0.7,0.02,0.74,0
718,0.69,0.02,0.73,0
719,0.69,0.02,0.73,0
720,0.7,0.01,0.74,0
721,0.68,0.01,0.73,0
722,0.69,0.01,0.74,0
723,0.69,0.01,0.73,0
724,0.69,0.01,0.73,0
725,0.68,0.01,0.74,0
726,0.69,0.02,0.74,0
727,0.7,0.01,0.74,0
728,0.69,0.02,0.74,0
729,0.68,0.02,0.74,0
730,0.68,0.01,0.73,0
731,0.7,0.01,0.74,0
732,0.7,0.02,0.74,0
733,0.69,0.01,0.74,0
734,0.68,0.01,0.74,0
735,0.69,0.02,0.74,0
736,0.69,0.02,0.74,0
737,0.69,0.01,0.74,0
738,0.68,0.02,0.74,0
739,0.69,0.01,0.74,0
740,0.69,0.01,0.74,0
741,0.68,0.01,0.74,0
742,0.69,0.02,0.74,0
743,0.7,0.01,0.74,0
744,0.7,0.01,0.74,0
745,0.69,0.01,0.74,0
746,0.7,0.01,0.74,0
747,0.7,0.01,0.74,0
748,0.69,0.01,0.73,0
749,0.69,0.0,0.73,0
750,0.69,0.01,0.74,0
751,0.7,0.01,0.74,0
752,0.69,0.0,0.74,0
753,0.69,0.0,0.74,0
754,0.71,0.0,0.74,0
755,0.7,0.01,0.74,0
756,0.69,0.0,0.74,0
757,0.69,0.0,0.74,0
758,0.69,0.0,0.74,0
759,0.69,0.0,0.74,0
760,0.69,0.0,0.74,0
761,0.69,0.0,0.74,0
762,0.69,0.01,0.74,0
763,0.69,0.0,0.74,0
764,0.69,0.0,0.73,0
765,0.69,0.0,0.74,0
766,0.69,0.0,0.74,0
767,0.69,0.0,0.74,0
768,0.69,0.0,0.73,0
769,0.69,0.0,0.74,0
770,0.7,0.0,0.74,0
771,0.69,0.0,0.74,0
772,0.69,0.0,0.74,0
773,0.7,0.0,0.74,0
774,0.69,0.0,0.74,0
775,0.69,0.0,0.74,0
776,0.69,0.0,0.73,0
777,0.69,0.0,0.73,0
778,0.69,0.0,0.74,0
779,0.69,0.0,0.74,0
780,0.69,0.0,0.74,0
781,0.69,0.0,0.74,0
782,0.7,0.0,0.74,0
783,0.68,0.0,0.74,0
784,0.7,0.0,0.73,0
785,0.7,0.0,0.74,0
786,0.69,0.0,0.74,0
787,0.68,0.0,0.73,0
788,0.7,0.0,0.74,0
789,0.7,0.0,0.74,0
790,0.69,0.0,0.74,0
791,0.69,0.0,0.74,0
792,0.69,0.0,0.74,0
793,0.7,0.0,0.74,0
794,0.69,0.0,0.74,0
795,0.69,0.0,0.73,0
796,0.69,0.0,0.73,0
797,0.7,0.0,0.74,0
798,0.69,0.0,0.74,0
799,0.69,0.0,0.74,0
800,0.7,0.0,0.74,0
801,0.69,0.0,0.74,0
802,0.69,0.0,0.74,0
803,0.69,0.0,0.73,0
804,0.69,0.0,0.74,0
805,0.69,0.0,0.74,0
806,0.68,0.0,0.74,0
807,0.7,0.0,0.74,0
808,0.69,0.0,0.74,0
809,0.69,0.0,0.74,0
810,0.68,0.0,0.74,0
811,0.69,0.0,0.74,0
812,0.69,0.0,0.74,0
813,0.69,0.0,0.74,0
814,0.69,0.0,0.73,0
815,0.69,0.0,0.74,0
816,0.69,0.0,0.74,0
817,0.69,0.0,0.74,0
818,0.69,0.0,0.74,0
819,0.69,0.0,0.74,0
820,0.68,0.0,0.74,0
821,0.69,0.0,0.73,0
822,0.69,0.0,0.74,0
823,0.68,0.0,0.74,0
824,0.68,0.0,0.74,0
825,0.7,0.0,0.74,0
826,0.69,0.0,0.74,0
827,0.69,0.0,0.74,0
828,0.69,0.0,0.74,0
829,0.69,0.0,0.74,0
830,0.69,0.0,0.74,0
831,0.69,0.0,0.74,0
832,0.69,0.0,0.73,0
833,0.7,0.0,0.74,0
834,0.69,0.0,0.74,0
835,0.69,0.0,0.74,0
836,0.69,0.0,0.74,0
837,0.7,0.0,0.74,0
838,0.69,0.0,0.74,0
839,0.69,0.0,0.74,0
840,0.7,0.0,0.74,0
841,0.69,0.0,0.73,0
842,0.7,0.0,0.73,0
843,0.69,0.0,0.73,0
844,0.69,0.0,0.73,0
845,0.71,0.0,0.74,0
846,0.68,0.0,0.74,0
847,0.69,-0.01,0.74,0
848,0.69,0.0,0.74,0
849,0.68,0.01,0.75,0
850,0.67,-0.01,0.75,0
851,0.67,0.0,0.75,0
852,0.66,0.0,0.75,0
853,0.66,-0.01,0.74,0
854,0.69,0.0,0.74,0
855,0.67,0.0,0.74,0
856,0.67,0.0,0.75,0
857,0.64,0.02,0.75,0
858,0.67,0.0,0.75,0
859,0.65,0.0,0.78,0
860,0.65,0.01,0.8,0
861,0.68,-0.02,0.78,0
862,0.71,0.01,0.73,0
863,0.7,-0.01,0.71,0
864,0.66,0.0,0.7,0
865,0.69,0.0,0.7,0
866,0.72,0.0,0.71,0
867,0.69,0.0,0.73,0
868,0.72,0.0,0.73,0
869,0.69,0.0,0.73,0
870,0.7,0.0,0.73,0
871,0.7,0.0,0.75,0
872,0.68,0.03,0.72,0
873,0.68,0.01,0.72,0
874,0.72,-0.01,0.74,0
875,0.69,0.0,0.72,2
876,0.7,0.0,0.72,2
877,0.71,0.0,0.72,2
878,0.7,0.0,0.72,2
879,0.7,0.0,0.73,2
880,0.71,0.0,0.73,2
881,0.7,0.0,0.73,2
882,0.71,0.0,0.73,2
883,0.71,0.0,0.73,2
884,0.71,0.0,0.73,2
885,0.71,0.0,0.73,2
886,0.71,0.0,0.72,2
887,0.7,0.0,0.73,2
888,0.71,0.0,0.73,2
889,0.71,0.0,0.73,2
890,0.71,0.0,0.73,2
891,0.71,0.0,0.72,2
892,0.71,0.0,0.72,2
893,0.71,0.01,0.71,2
894,0.72,0.01,0.72,2
895,0.72,0.01,0.74,2
896,0.73,0.0,0.74,2
897,0.71,0.0,0.73,2
898,0.69,0.01,0.72,2
899,0.66,0.05,0.69,2
900,0.64,0.11,0.68,2
901,0.64,0.23,0.69,2
902,0.59,0.31,0.75,2
903,0.5,0.31,0.92,2
904,0.55,0.31,1.24,2
905,0.59,0.17,1.59,2
906,0.73,0.15,1.8,2
907,1.06,0.08,1.77,2
908,1.07,-0.03,1.45,2
909,1.18,-0.11,1.02,2
910,1.16,-0.08,0.69,2
911,0.94,-0.07,0.49,2
912,0.74,-0.12,0.42,2
913,0.48,-0.2,0.29,2
914,0.32,-0.19,0.29,2
915,0.19,-0.19,0.24,2
916,0.07,-0.13,0.32,2
917,-0.06,-0.04,0.47,2
918,-0.12,0.0,0.57,2
919,-0.14,0.03,0.76,2
920,-0.18,0.04,0.76,2
921,0.01,0.07,0.98,2
922,-0.11,0.06,0.98,2
923,0.09,0.02,1.11,2
924,0.05,0.03,1.07,2
925,0.26,-0.02,1.13,2
926,0.25,-0.04,1.15,2
927,0.32,-0.05,1.12,2
928,0.54,-0.07,1.09,2
929,0.45,-0.12,1.05,2
930,0.58,-0.12,1.02,2
931,0.57,-0.11,0.98,2
932,0.61,-0.13,0.94,2
933,0.74,-0.13,0.89,2
934,0.66,-0.13,0.83,2
935,0.76,-0.08,0.81,2
936,0.65,-0.08,0.78,2
937,0.71,-0.01,0.8,2
938,0.73,0.0,0.8,2
939,0.67,0.02,0.81,2
940,0.72,0.02,0.79,2
941,0.66,0.0,0.74,2
942,0.7,0.0,0.75,2
943,0.69,0.01,0.74,2
944,0.7,0.03,0.74,2
945,0.68,0.04,0.75,2
946,0.7,0.05,0.74,2
947,0.7,0.05,0.74,2
948,0.7,0.03,0.72,2
949,0.72,0.03,0.73,2
950,0.72,0.03,0.73,2
951,0.72,0.02,0.73,2
952,0.72,0.04,0.72,2
953,0.73,0.04,0.72,2
954,0.72,0.04,0.72,2
955,0.72,0.04,0.71,2
956,0.7,0.04,0.69,2
957,0.7,0.05,0.7,2
958,0.7,-0.02,0.7,2
959,0.64,0.1,0.67,2
960,0.76,0.01,0.74,2
961,0.68,0.07,0.74,2
962,0.71,0.04,0.75,2
963,0.73,0.03,0.76,2
964,0.71,0.03,0.77,2
965,0.69,0.04,0.75,2
966,0.71,0.02,0.66,2
967,0.59,0.1,0.69,2
968,0.69,0.02,0.74,2
969,0.65,0.03,0.76,2
970,0.68,0.06,0.78,2
971,0.7,0.03,0.79,2
972,0.67,0.04,0.74,2
973,0.68,0.05,0.72,2
974,0.62,0.07,0.69,2
975,0.69,0.04,0.71,0
976,0.69,0.02,0.71,0
977,0.7,0.02,0.72,0
978,0.72,0.02,0.74,0
979,0.71,0.02,0.74,0
980,0.72,0.01,0.73,0
981,0.72,0.02,0.73,0
982,0.7,0.02,0.73,0
983,0.72,0.01,0.73,0
984,0.7,0.01,0.72,0
985,0.7,0.01,0.73,0
986,0.72,0.0,0.72,0
987,0.7,0.01,0.73,0
988,0.71,0.01,0.73,0
989,0.71,0.01,0.72,0
990,0.7,0.01,0.71,0
991,0.71,0.01,0.73,0
992,0.71,0.01,0.74,0
993,0.7,0.01,0.73,0
994,0.71,0.01,0.73,0
995,0.71,0.01,0.73,0
996,0.71,0.01,0.73,0
997,0.7,0.01,0.72,0
998,0.71,0.01,0.72,0
999,0.72,0.01,0.73,0
1000,0.7,0.01,0.72,0
1001,0.71,0.01,0.73,0
1002,0.71,0.0,0.73,0
1003,0.71,0.0,0.73,0
1004,0.72,0.01,0.73,0
1005,0.72,0.01,0.73,0
1006,0.72,0.01,0.72,0
1007,0.7,0.01,0.73,0
1008,0.7,0.01,0.73,0
1009,0.71,0.01,0.72,0
1010,0.71,0.01,0.73,0
1011,0.72,0.01,0.73,0
1012,0.71,0.01,0.73,0
1013,0.71,0.01,0.73,0
1014,0.71,0.01,0.72,0
1015,0.71,0.01,0.72,0
1016,0.71,0.01,0.72,0
1017,0.72,0.01,0.73,0
1018,0.71,0.01,0.73,0
1019,0.71,0.0,0.74,0
1020,0.71,0.0,0.73,0
1021,0.72,0.0,0.72,0
1022,0.71,0.01,0.72,0
1023,0.7,0.01,0.72,0
1024,0.71,0.01,0.73,0
1025,0.71,0.01,0.73,0
1026,0.71,0.0,0.73,0
1027,0.71,0.0,0.73,0
1028,0.71,0.01,0.73,0
1029,0.72,0.01,0.73,0
1030,0.71,0.0,0.73,0
1031,0.71,0.0,0.72,0
1032,0.71,0.0,0.72,0
1033,0.71,0.0,0.72,0
1034,0.71,0.01,0.72,0
1035,0.72,0.01,0.72,0
1036,0.72,0.0,0.73,0
1037,0.71,0.0,0.73,0
1038,0.71,0.0,0.73,0
1039,0.72,0.0,0.73,0
1040,0.71,0.0,0.73,0
1041,0.71,0.0,0.73,0
1042,0.71,0.0,0.72,0
1043,0.71,0.0,0.73,0
1044,0.71,0.0,0.73,0
1045,0.71,0.0,0.73,0
1046,0.71,0.0,0.73,0
1047,0.71,0.0,0.73,0
1048,0.7,0.0,0.73,0
1049,0.71,0.0,0.73,0
1050,0.72,0.0,0.73,0
1051,0.7,0.0,0.73,0
1052,0.71,0.0,0.73,0
1053,0.71,0.0,0.73,0
1054,0.71,0.0,0.73,0
1055,0.71,0.0,0.72,0
1056,0.71,0.0,0.73,0
1057,0.72,0.0,0.73,0
1058,0.71,0.0,0.73,0
1059,0.7,0.0,0.72,0
1060,0.71,0.0,0.73,0
1061,0.72,0.0,0.73,0
1062,0.71,0.0,0.73,0
1063,0.72,0.0,0.72,0
1064,0.71,0.0,0.73,0
1065,0.7,0.0,0.73,0
1066,0.72,0.0,0.73,0
1067,0.71,0.0,0.72,0
1068,0.71,0.0,0.73,0
1069,0.7,0.0,0.73,0
1070,0.72,0.0,0.73,0
1071,0.71,0.0,0.73,0
1072,0.71,0.0,0.73,0
1073,0.71,0.0,0.73,0
1074,0.71,0.0,0.73,0
1075,0.72,0.0,0.73,0
1076,0.71,0.0,0.73,0
1077,0.71,0.0,0.72,0
1078,0.71,0.0,0.72,0
1079,0.71,0.0,0.73,0
1080,0.71,0.0,0.73,0
1081,0.71,0.0,0.73,0
1082,0.71,0.0,0.73,0
1083,0.71,0.0,0.73,0
1084,0.72,0.0,0.73,0
1085,0.72,0.0,0.73,0
1086,0.72,0.0,0.73,0
1087,0.71,0.0,0.72,0
1088,0.72,0.0,0.72,0
1089,0.72,0.0,0.72,0
1090,0.72,0.0,0.72,0
1091,0.71,0.0,0.73,0
1092,0.72,0.0,0.73,0
1093,0.72,0.0,0.73,0
1094,0.71,0.0,0.73,0
1095,0.71,0.0,0.72,0
1096,0.72,0.0,0.72,0
1097,0.72,0.0,0.72,0
1098,0.71,0.0,0.73,0
1099,0.71,0.0,0.73,0
1100,0.71,0.0,0.73,0
1101,0.71,0.0,0.73,0
1102,0.71,-0.01,0.73,0
1103,0.71,0.0,0.72,0
1104,0.71,0.0,0.73,0
1105,0.72,-0.01,0.72,0
1106,0.71,0.0,0.73,0
1107,0.71,-0.01,0.73,0
1108,0.71,-0.01,0.73,0
1109,0.71,-0.01,0.73,0
1110,0.72,0.0,0.73,0
1111,0.72,0.0,0.73,0
1112,0.7,0.0,0.72,0
1113,0.7,-0.01,0.72,0
1114,0.71,-0.01,0.73,0
1115,0.71,-0.01,0.73,0
1116,0.71,-0.01,0.73,0
1117,0.71,-0.01,0.73,0
1118,0.7,-0.01,0.73,0
1119,0.71,-0.01,0.73,0
1120,0.71,-0.01,0.73,0
1121,0.71,-0.01,0.73,0
1122,0.71,-0.01,0.73,0
1123,0.71,0.0,0.72,0
1124,0.71,0.0,0.73,0
1125,0.71,-0.01,0.73,0
1126,0.71,-0.01,0.73,0
1127,0.72,0.0,0.73,0
1128,0.71,0.0,0.72,0
1129,0.71,-0.01,0.72,0
1130,0.71,-0.01,0.72,0
1131,0.71,-0.01,0.73,0
1132,0.72,-0.01,0.73,0
1133,0.71,-0.01,0.73,0
1134,0.7,-0.01,0.72,0
1135,0.7,-0.01,0.72,0
1136,0.69,-0.01,0.71,0
1137,0.71,-0.02,0.7,0
1138,0.73,0.01,0.75,0
1139,0.61,0.0,0.69,0
1140,0.72,-0.01,0.74,0
1141,0.72,-0.01,0.75,0
1142,0.68,-0.01,0.75,0
1143,0.65,0.0,0.74,0
1144,0.67,0.0,0.74,0
1145,0.67,0.0,0.73,0
1146,0.7,0.0,0.74,0
1147,0.68,0.01,0.73,0
1148,0.71,0.02,0.74,0
1149,0.68,0.02,0.73,0
1150,0.68,0.03,0.73,0
1151,0.72,0.04,0.74,0
1152,0.68,0.05,0.73,0
1153,0.71,0.05,0.74,0
1154,0.7,0.06,0.74,0
1155,0.71,0.05,0.74,0
1156,0.7,0.05,0.74,0
1157,0.7,0.06,0.73,0
1158,0.72,0.08,0.73,0
1159,0.73,0.07,0.74,0
1160,0.73,0.06,0.73,0
1161,0.7,0.05,0.72,0
1162,0.73,0.05,0.73,0
1163,0.72,0.04,0.73,0
1164,0.68,0.03,0.72,0
1165,0.72,0.02,0.72,0
1166,0.7,0.01,0.72,0
1167,0.7,0.01,0.73,0
1168,0.69,0.01,0.72,0
1169,0.71,0.01,0.72,0
1170,0.71,0.01,0.72,0
1171,0.72,0.01,0.73,0
1172,0.72,0.01,0.73,0
1173,0.71,0.01,0.73,0
1174,0.72,0.0,0.72,0
1175,0.71,0.0,0.72,0
1176,0.72,0.0,0.72,0
1177,0.72,0.0,0.72,0
1178,0.72,0.0,0.72,0
1179,0.72,0.0,0.71,0
1180,0.71,0.0,0.72,0
1181,0.73,0.0,0.73,0
1182,0.69,0.0,0.72,0
1183,0.72,0.0,0.69,0
1184,0.72,0.0,0.7,0
1185,0.66,0.01,0.72,0
1186,0.72,0.01,0.73,0
1187,0.75,-0.01,0.74,0
1188,0.71,0.0,0.73,0
1189,0.67,-0.01,0.73,0
1190,0.73,0.02,0.69,0
1191,0.7,0.0,0.74,0
1192,0.72,0.0,0.75,0
1193,0.72,-0.01,0.75,0
1194,0.73,0.0,0.74,0
1195,0.72,0.04,0.73,0
1196,0.7,-0.01,0.74,0
1197,0.72,0.0,0.68,0
1198,0.71,0.01,0.69,0
1199,0.73,0.03,0.7,0
1200,0.74,0.01,0.7,0
1201,0.73,0.0,0.71,0
1202,0.73,0.0,0.72,0
1203,0.72,0.0,0.7,0
1204,0.72,0.0,0.71,0
1205,0.73,0.0,0.72,0
1206,0.72,0.0,0.72,0
1207,0.73,0.0,0.71,0
1208,0.72,0.0,0.71,0
1209,0.73,0.0,0.71,0
1210,0.73,0.0,0.71,0
1211,0.73,0.0,0.71,0
1212,0.73,0.0,0.71,0
1213,0.73,0.0,0.71,0
1214,0.73,0.0,0.72,0
1215,0.72,0.0,0.71,0
1216,0.72,0.0,0.7,0
1217,0.73,0.0,0.71,0
1218,0.72,0.0,0.7,0
1219,0.73,0.0,0.7,0
1220,0.73,0.0,0.71,0
1221,0.72,0.0,0.72,0
1222,0.72,0.0,0.71,0
1223,0.72,0.0,0.71,0
1224,0.73,0.0,0.7,0
1225,0.73,0.0,0.71,2
1226,0.72,0.0,0.7,2
1227,0.73,0.0,0.71,2
1228,0.73,0.0,0.71,2
1229,0.73,0.0,0.71,2
1230,0.73,0.0,0.7,2
1231,0.73,0.0,0.7,2
1232,0.73,0.0,0.71,2
1233,0.73,0.0,0.71,2
1234,0.73,0.0,0.71,2
1235,0.73,0.0,0.71,2
1236,0.73,0.0,0.7,2
1237,0.73,0.0,0.71,2
1238,0.73,0.0,0.71,2
1239,0.73,0.0,0.71,2
1240,0.73,-0.01,0.71,2
1241,0.73,0.0,0.7,2
1242,0.73,0.0,0.7,2
1243,0.73,0.0,0.7,2
1244,0.73,0.0,0.71,2
1245,0.74,0.0,0.7,2
1246,0.7,0.0,0.66,2
1247,0.64,0.09,0.59,2
1248,0.6,0.15,0.61,2
1249,0.66,0.22,0.77,2
1250,0.72,0.26,0.94,2
1251,0.69,0.22,1.2,2
1252,0.64,0.1,1.44,2
1253,0.76,0.01,1.57,2
1254,0.94,-0.08,1.58,2
1255,1.13,-0.14,1.49,2
1256,1.25,-0.23,1.31,2
1257,1.19,-0.24,0.85,2
1258,1.07,-0.22,0.61,2
1259,1.03,-0.23,0.35,2
1260,0.69,-0.23,0.19,2
1261,0.55,-0.17,0.16,2
1262,0.26,-0.12,0.11,2
1263,0.01,-0.05,0.14,2
1264,-0.12,-0.02,0.29,2
1265,-0.32,0.08,0.49,2
1266,-0.28,0.06,0.62,2
1267,-0.33,0.1,0.8,2
1268,-0.16,0.07,0.79,2
1269,-0.02,0.14,1.0,2
1270,-0.04,0.04,1.02,2
1271,0.09,0.05,1.19,2
1272,0.3,-0.04,1.19,2
1273,0.29,0.0,1.22,2
1274,0.43,-0.1,1.14,2
1275,0.59,-0.13,1.13,2
1276,0.5,-0.16,1.02,2
1277,0.71,-0.13,1.06,2
1278,0.58,-0.13,1.0,2
1279,0.6,-0.19,1.01,2
1280,0.67,-0.13,0.97,2
1281,0.63,-0.13,0.92,2
1282,0.77,-0.14,0.84,2
1283,0.72,-0.15,0.78,2
1284,0.62,-0.12,0.8,2
1285,0.62,-0.1,0.82,2
1286,0.52,-0.03,0.83,2
1287,0.53,0.0,0.84,2
1288,0.53,0.03,0.86,2
1289,0.53,0.05,0.87,2
1290,0.54,0.04,0.87,2
1291,0.5,0.03,0.86,2
1292,0.53,0.03,0.86,2
1293,0.52,0.03,0.85,2
1294,0.56,0.0,0.84,2
1295,0.58,-0.01,0.83,2
1296,0.58,-0.01,0.84,2
1297,0.58,-0.02,0.84,2
1298,0.6,-0.02,0.84,2
1299,0.58,0.0,0.85,2
1300,0.54,0.01,0.81,2
1301,0.52,-0.01,0.85,2
1302,0.57,0.03,0.79,2
1303,0.51,-0.02,0.85,2
1304,0.56,0.0,0.87,2
1305,0.57,0.01,0.88,2
1306,0.62,0.0,0.91,2
1307,0.59,-0.05,0.79,2
1308,0.55,0.06,0.73,2
1309,0.57,0.0,0.76,2
1310,0.55,0.0,0.82,2
1311,0.54,0.04,0.86,2
1312,0.56,0.04,0.88,2
1313,0.59,-0.03,0.89,2
1314,0.62,0.02,0.78,2
1315,0.6,0.0,0.75,2
1316,0.62,0.01,0.73,2
1317,0.62,0.01,0.77,2
1318,0.6,-0.01,0.78,2
1319,0.64,0.0,0.78,2
1320,0.62,0.0,0.78,2
1321,0.64,0.01,0.77,2
1322,0.67,0.0,0.78,2
1323,0.65,-0.02,0.76,2
1324,0.64,-0.01,0.78,2
1325,0.61,-0.01,0.77,0
1326,0.62,-0.01,0.77,0
1327,0.62,0.0,0.77,0
1328,0.65,0.0,0.77,0
1329,0.65,0.0,0.76,0
1330,0.65,-0.01,0.76,0
1331,0.66,-0.02,0.76,0
1332,0.65,-0.02,0.76,0
1333,0.66,-0.03,0.76,0
1334,0.65,-0.03,0.75,0
1335,0.66,-0.03,0.75,0
1336,0.67,-0.03,0.75,0
1337,0.66,-0.03,0.75,0
1338,0.66,-0.04,0.76,0
1339,0.66,-0.03,0.76,0
1340,0.66,-0.03,0.75,0
1341,0.66,-0.03,0.75,0
1342,0.66,-0.04,0.75,0
1343,0.67,-0.06,0.74,0
1344,0.67,-0.07,0.73,0
1345,0.7,-0.08,0.73,0
1346,0.72,-0.11,0.73,0
1347,0.67,-0.12,0.7,0
1348,0.7,-0.13,0.67,0
1349,0.7,-0.13,0.66,0
1350,0.67,-0.12,0.69,0
1351,0.73,-0.1,0.7,0
1352,0.72,-0.05,0.75,0
1353,0.72,-0.03,0.77,0
1354,0.68,-0.01,0.82,0
1355,0.69,-0.01,0.8,0
1356,0.7,0.0,0.76,0
1357,0.72,-0.03,0.73,0
1358,0.74,-0.05,0.7,0
1359,0.73,-0.06,0.71,0
1360,0.7,-0.06,0.71,0
1361,0.71,-0.07,0.7,0
1362,0.72,-0.08,0.7,0
1363,0.73,-0.09,0.73,0
1364,0.72,-0.08,0.73,0
1365,0.72,-0.07,0.72,0
1366,0.71,-0.07,0.71,0
1367,0.7,-0.08,0.72,0
1368,0.72,-0.1,0.73,0
1369,0.72,-0.08,0.73,0
1370,0.71,-0.06,0.72,0
1371,0.7,-0.06,0.72,0
1372,0.68,-0.07,0.71,0
1373,0.71,-0.1,0.71,0
1374,0.72,-0.12,0.72,0
1375,0.72,-0.1,0.72,0
1376,0.73,-0.09,0.73,0
1377,0.72,-0.08,0.73,0
1378,0.72,-0.08,0.74,0
1379,0.69,-0.08,0.72,0
1380,0.72,-0.09,0.73,0
1381,0.69,-0.08,0.73,0
1382,0.7,-0.09,0.73,0
1383,0.67,-0.1,0.72,0
1384,0.68,-0.1,0.72,0
1385,0.72,-0.09,0.72,0
1386,0.73,-0.06,0.73,0
1387,0.74,-0.04,0.72,0
1388,0.71,-0.03,0.7,0
1389,0.7,-0.04,0.7,0
1390,0.72,-0.04,0.71,0
1391,0.73,-0.04,0.73,0
1392,0.73,-0.03,0.74,0
1393,0.73,-0.03,0.73,0
1394,0.71,-0.04,0.74,0
1395,0.67,-0.07,0.73,0
1396,0.69,-0.11,0.74,0
1397,0.71,-0.12,0.74,0
1398,0.71,-0.12,0.74,0
1399,0.71,-0.12,0.73,0
1400,0.7,-0.11,0.73,0
1401,0.7,-0.09,0.73,0
1402,0.67,-0.08,0.74,0
1403,0.65,-0.1,0.73,0
1404,0.68,-0.11,0.74,0
1405,0.68,-0.09,0.74,0
1406,0.7,-0.06,0.74,0
1407,0.68,-0.05,0.75,0
1408,0.62,-0.05,0.75,0
1409,0.63,-0.07,0.75,0
1410,0.67,-0.08,0.75,0
1411,0.69,-0.07,0.76,0
1412,0.69,-0.09,0.75,0
1413,0.67,-0.09,0.74,0
1414,0.65,-0.07,0.74,0
1415,0.67,-0.07,0.75,0
1416,0.66,-0.07,0.75,0
1417,0.66,-0.07,0.75,0
1418,0.67,-0.08,0.74,0
1419,0.67,-0.07,0.73,0
1420,0.67,-0.05,0.75,0
1421,0.68,-0.04,0.77,0
1422,0.66,-0.04,0.78,0
1423,0.66,-0.05,0.78,0
1424,0.66,-0.05,0.76,0
1425,0.67,-0.06,0.75,0
1426,0.67,-0.05,0.75,0
1427,0.67,-0.06,0.74,0
1428,0.66,-0.07,0.74,0
1429,0.64,-0.11,0.73,0
1430,0.65,-0.11,0.74,0
1431,0.66,-0.09,0.75,0
1432,0.66,-0.1,0.75,0
1433,0.66,-0.12,0.76,0
1434,0.65,-0.1,0.78,0
1435,0.63,-0.09,0.77,0
1436,0.65,-0.09,0.76,0
1437,0.65,-0.08,0.76,0
1438,0.66,-0.07,0.75,0
1439,0.66,-0.08,0.75,0
1440,0.65,-0.09,0.75,0
1441,0.64,-0.09,0.75,0
1442,0.65,-0.09,0.76,0
1443,0.66,-0.08,0.77,0
1444,0.66,-0.08,0.77,0
1445,0.65,-0.08,0.75,0
1446,0.66,-0.08,0.76,0
1447,0.66,-0.07,0.76,0
1448,0.66,-0.07,0.75,0
1449,0.66,-0.08,0.75,0
1450,0.63,-0.07,0.76,0
1451,0.66,-0.07,0.76,0
1452,0.64,-0.07,0.76,0
1453,0.66,-0.07,0.74,0
1454,0.67,-0.07,0.74,0
1455,0.67,-0.07,0.76,0
1456,0.67,-0.08,0.75,0
1457,0.67,-0.06,0.75,0
1458,0.67,-0.07,0.76,0
1459,0.69,-0.06,0.75,0
1460,0.67,-0.06,0.74,0
1461,0.68,-0.06,0.74,0
1462,0.68,-0.06,0.75,0
1463,0.66,-0.08,0.74,0
1464,0.68,-0.05,0.73,0
1465,0.63,-0.06,0.74,0
1466,0.72,-0.06,0.73,0
1467,0.66,-0.07,0.76,0
1468,0.67,-0.06,0.73,0
1469,0.66,-0.01,0.75,0
1470,0.72,-0.06,0.74,0
1471,0.66,-0.05,0.76,0
1472,0.68,-0.06,0.76,0
1473,0.67,-0.05,0.76,0
1474,0.66,-0.04,0.76,0
1475,0.75,-0.05,0.75,0
1476,0.62,-0.06,0.72,0
1477,0.66,-0.04,0.73,0
1478,0.7,-0.05,0.75,0
1479,0.65,-0.05,0.75,0
1480,0.7,-0.03,0.74,0
1481,0.71,-0.03,0.74,0
1482,0.65,-0.04,0.76,0
1483,0.68,-0.04,0.75,0
1484,0.67,-0.04,0.74,0
1485,0.66,-0.04,0.74,0
1486,0.67,-0.05,0.74,0
1487,0.68,-0.05,0.74,0
1488,0.68,-0.04,0.75,0
1489,0.66,-0.04,0.75,0
1490,0.66,-0.06,0.74,0
1491,0.67,-0.07,0.74,0
1492,0.68,-0.06,0.75,0
1493,0.68,-0.06,0.74,0
1494,0.66,-0.06,0.74,0
1495,0.67,-0.05,0.75,0
1496,0.67,-0.04,0.75,0
1497,0.66,-0.04,0.75,0
1498,0.69,-0.06,0.75,0
1499,0.68,-0.06,0.74,0
1500,0.68,-0.05,0.74,2
1501,0.66,-0.04,0.74,2
1502,0.65,-0.06,0.74,2
1503,0.69,-0.07,0.74,2
1504,0.7,-0.06,0.75,2
1505,0.67,-0.07,0.75,2
1506,0.66,-0.07,0.74,2
1507,0.67,-0.07,0.75,2
1508,0.68,-0.05,0.76,2
1509,0.67,-0.05,0.76,2
1510,0.65,-0.07,0.75,2
1511,0.66,-0.07,0.73,2
1512,0.67,-0.06,0.74,2
1513,0.69,-0.06,0.75,2
1514,0.67,-0.07,0.75,2
1515,0.64,-0.08,0.75,2
1516,0.65,-0.07,0.74,2
1517,0.66,-0.05,0.73,2
1518,0.68,-0.03,0.71,2
1519,0.67,-0.02,0.74,2
1520,0.63,0.0,0.74,2
1521,0.6,0.03,0.74,2
1522,0.63,0.09,0.75,2
1523,0.67,0.13,0.82,2
1524,0.67,0.17,0.9,2
1525,0.61,0.14,1.04,2
1526,0.51,0.11,1.19,2
1527,0.71,0.05,1.4,2
1528,0.91,-0.02,1.62,2
1529,0.98,-0.09,1.65,2
1530,1.13,-0.22,1.51,2
1531,1.45,-0.31,1.24,2
1532,1.14,-0.3,0.85,2
1533,1.01,-0.32,0.56,2
1534,0.94,-0.33,0.23,2
1535,0.64,-0.23,0.09,2
1536,0.47,-0.1,0.03,2
1537,0.29,0.12,0.04,2
1538,-0.03,0.17,0.05,2
1539,-0.16,0.22,0.16,2
1540,-0.27,0.25,0.31,2
1541,-0.19,0.28,0.63,2
1542,-0.41,0.47,0.73,2
1543,-0.07,0.38,1.02,2
1544,-0.09,0.46,0.98,2
1545,0.34,0.35,1.38,2
1546,0.2,0.33,1.4,2
1547,0.4,0.22,1.54,2
1548,0.47,0.12,1.45,2
1549,0.54,-0.09,1.29,2
1550,0.75,-0.11,1.14,2
1551,0.55,-0.13,1.02,2
1552,0.7,-0.21,0.95,2
1553,0.63,-0.22,0.86,2
1554,0.65,-0.21,0.84,2
1555,0.66,-0.2,0.79,2
1556,0.49,-0.17,0.85,2
1557,0.55,-0.11,0.87,2
1558,0.56,-0.07,0.89,2
1559,0.52,-0.02,0.88,2
1560,0.57,-0.01,0.88,2
1561,0.53,-0.01,0.86,2
1562,0.52,-0.01,0.86,2
1563,0.55,-0.01,0.87,2
1564,0.54,0.0,0.85,2
1565,0.58,-0.01,0.84,2
1566,0.6,-0.02,0.82,2
1567,0.58,0.01,0.84,2
1568,0.62,-0.01,0.82,2
1569,0.61,-0.01,0.82,2
1570,0.58,-0.01,0.8,2
1571,0.59,-0.01,0.78,2
1572,0.59,-0.02,0.83,2
1573,0.55,0.01,0.73,2
1574,0.6,0.01,0.82,2
1575,0.59,-0.02,0.83,2
1576,0.67,0.02,0.86,2
1577,0.62,0.01,0.86,2
1578,0.68,0.0,0.76,2
1579,0.62,-0.01,0.73,2
1580,0.63,0.03,0.74,2
1581,0.59,0.0,0.8,2
1582,0.61,0.01,0.83,2
1583,0.6,0.02,0.84,2
1584,0.61,0.01,0.84,2
1585,0.66,0.01,0.79,2
1586,0.63,0.01,0.77,2
1587,0.66,0.02,0.74,2
1588,0.7,0.01,0.74,2
1589,0.63,0.0,0.74,2
1590,0.63,0.0,0.76,2
1591,0.65,-0.01,0.76,2
1592,0.64,0.0,0.76,2
1593,0.67,0.0,0.75,2
1594,0.66,-0.01,0.76,2
1595,0.64,-0.01,0.75,2
1596,0.66,-0.02,0.75,2
1597,0.66,-0.02,0.76,2
1598,0.66,-0.02,0.76,2
1599,0.65,-0.02,0.76,2
1600,0.65,-0.03,0.76,0
1601,0.67,-0.02,0.75,0
1602,0.66,-0.02,0.76,0
1603,0.66,-0.02,0.76,0
1604,0.66,-0.02,0.75,0
1605,0.66,-0.02,0.76,0
1606,0.66,-0.02,0.76,0
1607,0.67,-0.03,0.75,0
1608,0.67,-0.02,0.75,0
1609,0.67,-0.02,0.75,0
1610,0.67,-0.03,0.75,0
1611,0.66,-0.03,0.75,0
1612,0.66,-0.02,0.75,0
1613,0.67,-0.02,0.74,0
1614,0.67,-0.02,0.74,0
1615,0.67,-0.02,0.75,0
1616,0.67,-0.01,0.75,0
1617,0.67,-0.01,0.74,0
1618,0.67,-0.01,0.74,0
1619,0.69,-0.01,0.74,0
1620,0.67,-0.01,0.74,0
1621,0.68,-0.01,0.75,0
1622,0.67,-0.01,0.74,0
1623,0.68,-0.01,0.74,0
1624,0.68,-0.02,0.75,0
1625,0.68,-0.01,0.74,0
1626,0.68,-0.01,0.74,0
1627,0.68,-0.01,0.74,0
1628,0.67,-0.01,0.74,0
1629,0.68,-0.01,0.74,0
1630,0.68,-0.02,0.74,0
1631,0.68,-0.02,0.74,0
1632,0.68,-0.02,0.74,0
1633,0.68,-0.02,0.74,0
1634,0.69,-0.02,0.74,0
1635,0.68,-0.02,0.75,0
1636,0.67,-0.03,0.74,0
1637,0.69,-0.03,0.74,0
1638,0.68,-0.02,0.74,0
1639,0.68,-0.03,0.74,0
1640,0.67,-0.04,0.74,0
1641,0.68,-0.03,0.74,0
1642,0.68,-0.03,0.74,0
1643,0.68,-0.03,0.74,0
1644,0.68,-0.03,0.74,0
1645,0.68,-0.03,0.74,0
1646,0.68,-0.04,0.74,0
1647,0.68,-0.03,0.74,0
1648,0.68,-0.04,0.74,0
1649,0.68,-0.04,0.74,0
1650,0.67,-0.04,0.74,0
1651,0.68,-0.04,0.74,0
1652,0.68,-0.03,0.74,0
1653,0.68,-0.04,0.74,0
1654,0.68,-0.04,0.75,0
1655,0.69,-0.04,0.75,0
1656,0.68,-0.04,0.75,0
1657,0.68,-0.04,0.74,0
1658,0.68,-0.03,0.74,0
1659,0.68,-0.04,0.74,0
1660,0.67,-0.04,0.74,0
1661,0.68,-0.03,0.74,0
1662,0.68,-0.04,0.74,0
1663,0.67,-0.04,0.74,0
1664,0.68,-0.04,0.74,0
1665,0.68,-0.04,0.74,0
1666,0.67,-0.04,0.74,0
1667,0.68,-0.04,0.74,0
1668,0.68,-0.04,0.74,0
1669,0.68,-0.04,0.74,0
1670,0.68,-0.03,0.74,0
1671,0.68,-0.03,0.74,0
1672,0.67,-0.04,0.74,0
1673,0.68,-0.04,0.74,0
1674,0.69,-0.03,0.74,0
1675,0.68,-0.04,0.74,0
1676,0.67,-0.04,0.74,0
1677,0.68,-0.04,0.74,0
1678,0.69,-0.03,0.74,0
1679,0.69,-0.03,0.74,0
1680,0.68,-0.04,0.74,0
1681,0.68,-0.04,0.74,0
1682,0.68,-0.04,0.74,0
1683,0.68,-0.04,0.74,0
1684,0.69,-0.04,0.74,0
1685,0.68,-0.04,0.74,0
1686,0.68,-0.04,0.74,0
1687,0.68,-0.04,0.75,0
1688,0.68,-0.04,0.74,0
1689,0.68,-0.04,0.74,0
1690,0.68,-0.04,0.74,0
1691,0.68,-0.03,0.74,0
1692,0.68,-0.04,0.74,0
1693,0.67,-0.04,0.74,0
1694,0.68,-0.04,0.74,0
1695,0.68,-0.05,0.74,0
1696,0.68,-0.05,0.74,0
1697,0.68,-0.04,0.74,0
1698,0.69,-0.04,0.74,0
1699,0.67,-0.04,0.74,0
1700,0.68,-0.04,0.74,0
1701,0.68,-0.04,0.74,0
1702,0.69,-0.04,0.74,0
1703,0.68,-0.04,0.74,0
1704,0.68,-0.05,0.74,0
1705,0.68,-0.04,0.74,0
1706,0.69,-0.04,0.74,0
1707,0.68,-0.04,0.74,0
1708,0.68,-0.04,0.74,0
1709,0.68,-0.05,0.74,0
1710,0.68,-0.04,0.74,0
1711,0.68,-0.04,0.74,0
1712,0.68,-0.04,0.74,0
1713,0.67,-0.04,0.74,0
1714,0.69,-0.04,0.74,0
1715,0.68,-0.04,0.74,0
1716,0.67,-0.04,0.74,0
1717,0.68,-0.04,0.73,0
1718,0.7,-0.04,0.74,0
1719,0.68,-0.05,0.75,0
1720,0.65,-0.03,0.74,0
1721,0.71,-0.04,0.75,0
1722,0.64,-0.05,0.75,0
1723,0.7,-0.02,0.74,0
1724,0.66,-0.06,0.75,0
1725,0.65,-0.02,0.74,0
1726,0.69,-0.04,0.73,0
1727,0.66,-0.04,0.75,0
1728,0.69,-0.02,0.74,0
1729,0.67,-0.04,0.74,0
1730,0.64,-0.03,0.75,0
1731,0.66,-0.02,0.77,0
1732,0.67,-0.02,0.77,0
1733,0.69,-0.04,0.77,0
1734,0.72,-0.03,0.76,0
1735,0.68,-0.03,0.73,0
1736,0.69,-0.03,0.73,0
1737,0.66,-0.04,0.71,0
1738,0.71,-0.02,0.71,0
1739,0.7,-0.03,0.73,0
1740,0.67,-0.02,0.72,0
1741,0.72,-0.03,0.73,0
1742,0.71,-0.03,0.73,0
1743,0.71,-0.03,0.73,0
1744,0.72,-0.03,0.73,0
1745,0.71,-0.03,0.73,0
1746,0.7,-0.03,0.73,0
1747,0.7,-0.03,0.73,0
1748,0.71,-0.03,0.73,0
1749,0.71,-0.03,0.72,0
1750,0.71,-0.03,0.72,2
1751,0.71,-0.03,0.73,2
1752,0.71,-0.03,0.73,2
1753,0.7,-0.03,0.73,2
1754,0.71,-0.03,0.73,2
1755,0.72,-0.02,0.73,2
1756,0.71,-0.03,0.73,2
1757,0.7,-0.03,0.72,2
1758,0.71,-0.03,0.73,2
1759,0.72,-0.03,0.73,2
1760,0.71,-0.03,0.73,2
1761,0.72,-0.03,0.73,2
1762,0.71,-0.03,0.73,2
1763,0.71,-0.03,0.73,2
1764,0.71,-0.03,0.73,2
1765,0.7,-0.03,0.72,2
1766,0.7,-0.03,0.71,2
1767,0.71,-0.02,0.71,2
1768,0.72,0.0,0.71,2
1769,0.69,0.03,0.74,2
1770,0.59,0.07,0.76,2
1771,0.5,0.11,0.77,2
1772,0.53,0.19,0.89,2
1773,0.72,0.2,1.07,2
1774,0.73,0.1,1.31,2
1775,0.68,0.0,1.48,2
1776,0.9,-0.02,1.6,2
1777,0.98,-0.19,1.6,2
1778,0.99,-0.22,1.42,2
1779,1.0,-0.34,1.18,2
1780,0.93,-0.38,0.9,2
1781,0.85,-0.4,0.57,2
1782,0.74,-0.31,0.31,2
1783,0.6,-0.26,0.14,2
1784,0.38,-0.17,0.07,2
1785,0.15,-0.05,0.08,2
1786,-0.11,-0.03,0.13,2
1787,-0.28,0.02,0.29,2
1788,-0.37,0.05,0.47,2
1789,-0.43,0.11,0.66,2
1790,-0.35,0.17,0.8,2
1791,-0.33,0.13,0.88,2
1792,-0.19,0.08,0.98,2
1793,-0.01,0.04,1.05,2
1794,0.03,0.02,1.21,2
1795,0.14,0.04,1.27,2
1796,0.2,0.01,1.41,2
1797,0.23,0.02,1.31,2
1798,0.5,-0.07,1.34,2
1799,0.29,-0.08,1.12,2
1800,0.58,-0.13,1.11,2
1801,0.48,-0.19,1.04,2
1802,0.53,-0.15,1.02,2
1803,0.61,-0.19,0.95,2
1804,0.51,-0.2,0.87,2
1805,0.66,-0.2,0.84,2
1806,0.56,-0.18,0.79,2
1807,0.54,-0.13,0.82,2
1808,0.52,-0.1,0.86,2
1809,0.46,-0.07,0.87,2
1810,0.5,-0.04,0.89,2
1811,0.47,-0.02,0.91,2
1812,0.48,-0.02,0.88,2
1813,0.49,-0.02,0.88,2
1814,0.48,-0.02,0.88,2
1815,0.52,-0.03,0.89,2
1816,0.53,-0.04,0.88,2
1817,0.51,-0.03,0.87,2
1818,0.58,-0.05,0.87,2
1819,0.55,-0.03,0.86,2
1820,0.5,-0.01,0.82,2
1821,0.53,-0.03,0.84,2
1822,0.5,-0.01,0.85,2
1823,0.51,-0.05,0.87,2
1824,0.59,0.0,0.87,2
1825,0.54,-0.02,0.87,2
1826,0.56,0.02,0.9,2
1827,0.53,-0.03,0.87,2
1828,0.58,-0.01,0.75,2
1829,0.5,0.02,0.76,2
1830,0.6,-0.03,0.83,2
1831,0.55,-0.03,0.87,2
1832,0.57,0.02,0.88,2
1833,0.51,-0.01,0.88,2
1834,0.6,-0.03,0.86,2
1835,0.58,0.0,0.79,2
1836,0.58,-0.01,0.79,2
1837,0.57,-0.01,0.79,2
1838,0.58,0.0,0.78,2
1839,0.59,-0.01,0.8,2
1840,0.59,-0.02,0.81,2
1841,0.6,-0.01,0.81,2
1842,0.59,-0.02,0.81,2
1843,0.61,-0.02,0.8,2
1844,0.6,-0.01,0.8,2
1845,0.6,-0.01,0.79,2
1846,0.59,-0.01,0.79,2
1847,0.6,-0.01,0.79,2
1848,0.59,-0.01,0.79,2
1849,0.6,-0.01,0.78,2
1850,0.6,-0.01,0.79,0
1851,0.6,-0.01,0.8,0
1852,0.59,-0.01,0.8,0
1853,0.6,-0.01,0.79,0
1854,0.62,-0.01,0.79,0
1855,0.6,-0.01,0.8,0
1856,0.59,-0.01,0.8,0
1857,0.6,-0.02,0.79,0
1858,0.6,-0.01,0.78,0
1859,0.6,-0.01,0.79,0
1860,0.61,-0.01,0.78,0
1861,0.6,-0.01,0.78,0
1862,0.59,-0.01,0.78,0
1863,0.6,-0.01,0.79,0
1864,0.61,-0.01,0.79,0
1865,0.61,-0.01,0.8,0
1866,0.61,-0.01,0.8,0
1867,0.61,-0.01,0.79,0
1868,0.6,-0.01,0.78,0
1869,0.61,-0.01,0.78,0
1870,0.6,-0.01,0.78,0
1871,0.61,-0.01,0.78,0
1872,0.61,-0.01,0.78,0
1873,0.61,-0.01,0.79,0
1874,0.6,-0.02,0.79,0
1875,0.6,-0.01,0.78,0
1876,0.6,-0.01,0.78,0
1877,0.62,-0.01,0.77,0
1878,0.6,-0.01,0.78,0
1879,0.61,-0.01,0.78,0
1880,0.61,-0.02,0.78,0
1881,0.62,-0.01,0.79,0
1882,0.61,-0.01,0.79,0
1883,0.59,-0.01,0.77,0
1884,0.59,-0.01,0.76,0
1885,0.61,-0.01,0.77,0
1886,0.61,-0.01,0.78,0
1887,0.64,-0.01,0.82,0
1888,0.63,0.0,0.84,0
1889,0.61,0.03,0.79,0
1890,0.57,0.02,0.76,0
1891,0.57,-0.01,0.74,0
1892,0.59,-0.06,0.74,0
1893,0.65,-0.09,0.75,0
1894,0.67,-0.08,0.77,0
1895,0.69,-0.07,0.78,0
1896,0.66,-0.06,0.78,0
1897,0.65,-0.07,0.77,0
1898,0.66,-0.05,0.77,0
1899,0.66,-0.04,0.76,0
1900,0.67,-0.03,0.77,0
1901,0.67,-0.02,0.77,0
1902,0.67,-0.01,0.78,0
1903,0.66,-0.01,0.78,0
1904,0.64,-0.01,0.77,0
1905,0.62,-0.03,0.76,0
1906,0.62,-0.05,0.75,0
1907,0.63,-0.06,0.74,0
1908,0.67,-0.07,0.74,0
1909,0.66,-0.08,0.74,0
1910,0.67,-0.09,0.74,0
1911,0.67,-0.1,0.75,0
1912,0.67,-0.1,0.75,0
1913,0.68,-0.09,0.75,0
1914,0.68,-0.09,0.75,0
1915,0.68,-0.08,0.76,0
1916,0.7,-0.07,0.76,0
1917,0.68,-0.06,0.77,0
1918,0.66,-0.05,0.77,0
1919,0.63,-0.06,0.76,0
1920,0.63,-0.06,0.75,0
1921,0.65,-0.06,0.75,0
1922,0.66,-0.07,0.76,0
1923,0.65,-0.07,0.76,0
1924,0.62,-0.07,0.77,0
1925,0.63,-0.07,0.77,0
1926,0.62,-0.09,0.77,0
1927,0.6,-0.11,0.78,0
1928,0.6,-0.12,0.78,0
1929,0.66,-0.1,0.78,0
1930,0.67,-0.11,0.76,0
1931,0.65,-0.1,0.75,0
1932,0.63,-0.1,0.74,0
1933,0.61,-0.09,0.75,0
1934,0.59,-0.09,0.77,0
1935,0.6,-0.11,0.78,0
1936,0.62,-0.11,0.79,0
1937,0.63,-0.12,0.78,0
1938,0.63,-0.12,0.78,0
1939,0.63,-0.12,0.78,0
1940,0.63,-0.12,0.77,0
1941,0.62,-0.11,0.77,0
1942,0.62,-0.1,0.77,0
1943,0.61,-0.09,0.78,0
1944,0.6,-0.1,0.79,0
1945,0.59,-0.09,0.79,0
1946,0.61,-0.09,0.79,0
1947,0.6,-0.1,0.78,0
1948,0.6,-0.11,0.78,0
1949,0.62,-0.11,0.78,0
1950,0.63,-0.12,0.78,0
1951,0.62,-0.12,0.78,0
1952,0.62,-0.11,0.78,0
1953,0.62,-0.1,0.79,0
1954,0.61,-0.1,0.78,0
1955,0.61,-0.11,0.78,0
1956,0.61,-0.1,0.78,0
1957,0.6,-0.11,0.78,0
1958,0.61,-0.11,0.77,0
1959,0.62,-0.11,0.77,0
1960,0.62,-0.11,0.77,0
1961,0.61,-0.11,0.78,0
1962,0.62,-0.11,0.78,0
1963,0.62,-0.11,0.78,0
1964,0.61,-0.12,0.78,0
1965,0.62,-0.11,0.77,0
1966,0.63,-0.11,0.78,0
1967,0.62,-0.11,0.78,0
1968,0.61,-0.11,0.78,0
1969,0.61,-0.11,0.79,0
1970,0.62,-0.11,0.78,0
1971,0.61,-0.12,0.77,0
1972,0.62,-0.12,0.77,0
1973,0.63,-0.11,0.77,0
1974,0.62,-0.12,0.77,0
1975,0.61,-0.12,0.78,0
1976,0.61,-0.12,0.78,0
1977,0.63,-0.12,0.78,0
1978,0.62,-0.12,0.77,0
1979,0.61,-0.12,0.77,0
1980,0.61,-0.12,0.77,0
1981,0.62,-0.12,0.77,0
1982,0.61,-0.12,0.78,0
1983,0.62,-0.12,0.78,0
1984,0.62,-0.12,0.78,0
1985,0.62,-0.11,0.76,0
1986,0.63,-0.12,0.76,0
1987,0.63,-0.11,0.76,0
1988,0.62,-0.11,0.77,0
1989,0.61,-0.11,0.78,0
1990,0.6,-0.1,0.79,0
1991,0.6,-0.1,0.79,0
1992,0.61,-0.1,0.79,0
1993,0.61,-0.11,0.79,0
1994,0.61,-0.11,0.78,0
1995,0.61,-0.11,0.78,0
1996,0.61,-0.1,0.77,0
1997,0.61,-0.1,0.77,0
1998,0.62,-0.11,0.77,0
1999,0.63,-0.1,0.77,0
2000,0.63,-0.1,0.77,0
2001,0.62,-0.09,0.78,0
2002,0.64,-0.08,0.78,0
2003,0.62,-0.07,0.79,0
2004,0.62,-0.06,0.79,0
2005,0.62,-0.06,0.79,0
2006,0.6,-0.05,0.79,0
2007,0.6,-0.06,0.78,0
2008,0.61,-0.06,0.77,0
2009,0.62,-0.06,0.77,0
2010,0.62,-0.06,0.78,0
2011,0.61,-0.07,0.78,0
2012,0.61,-0.07,0.78,0
2013,0.62,-0.06,0.78,0
2014,0.62,-0.06,0.78,0
2015,0.62,-0.06,0.77,0
2016,0.62,-0.06,0.78,0
2017,0.63,-0.06,0.78,0
2018,0.61,-0.05,0.77,0
2019,0.62,-0.06,0.77,0
2020,0.61,-0.05,0.78,0
2021,0.62,-0.06,0.78,0
2022,0.63,-0.06,0.78,0
2023,0.61,-0.06,0.78,0
2024,0.63,-0.06,0.78,0
2025,0.64,-0.06,0.77,0
2026,0.6,-0.06,0.77,0
2027,0.62,-0.06,0.76,0
2028,0.65,-0.06,0.77,0
2029,0.63,-0.06,0.77,0
2030,0.63,-0.05,0.78,0
2031,0.66,-0.05,0.78,0
2032,0.6,-0.06,0.77,0
2033,0.65,-0.04,0.76,0
2034,0.64,-0.06,0.76,0
2035,0.66,-0.06,0.75,0
2036,0.68,-0.05,0.76,0
2037,0.66,-0.05,0.75,0
2038,0.66,-0.05,0.74,0
2039,0.67,-0.05,0.75,0
2040,0.67,-0.06,0.75,0
2041,0.67,-0.06,0.75,0
2042,0.66,-0.04,0.75,0
2043,0.66,-0.05,0.75,0
2044,0.67,-0.04,0.75,0
2045,0.65,-0.06,0.75,0
2046,0.62,-0.04,0.76,0
2047,0.64,-0.05,0.76,0
2048,0.69,-0.04,0.75,0
2049,0.66,-0.04,0.76,0
2050,0.65,-0.04,0.78,0
2051,0.65,-0.03,0.78,0
2052,0.62,-0.03,0.77,0
2053,0.65,-0.04,0.78,0
2054,0.66,-0.01,0.78,0
2055,0.62,-0.04,0.77,0
2056,0.68,-0.03,0.73,0
2057,0.66,-0.03,0.73,0
2058,0.66,-0.02,0.74,0
2059,0.71,-0.03,0.74,0
2060,0.67,-0.03,0.75,0
2061,0.68,-0.02,0.75,0
2062,0.68,-0.03,0.75,0
2063,0.66,-0.03,0.75,0
2064,0.69,-0.02,0.74,0
2065,0.66,-0.03,0.74,0
2066,0.68,-0.02,0.74,0
2067,0.68,-0.04,0.75,0
2068,0.68,-0.03,0.75,0
2069,0.68,-0.04,0.74,0
2070,0.67,-0.04,0.74,0
2071,0.67,-0.03,0.74,0
2072,0.67,-0.03,0.74,0
2073,0.68,-0.03,0.74,0
2074,0.67,-0.03,0.74,0
2075,0.68,-0.04,0.75,2
2076,0.67,-0.04,0.74,2
2077,0.69,-0.04,0.74,2
2078,0.68,-0.04,0.75,2
2079,0.67,-0.04,0.74,2
2080,0.68,-0.04,0.74,2
2081,0.67,-0.04,0.74,2
2082,0.68,-0.04,0.74,2
2083,0.68,-0.04,0.74,2
2084,0.68,-0.04,0.74,2
2085,0.68,-0.04,0.74,2
2086,0.68,-0.04,0.74,2
2087,0.68,-0.04,0.75,2
2088,0.68,-0.04,0.75,2
2089,0.67,-0.04,0.74,2
2090,0.68,-0.05,0.74,2
2091,0.67,-0.04,0.74,2
2092,0.67,-0.04,0.73,2
2093,0.69,-0.02,0.72,2
2094,0.61,0.01,0.74,2
2095,0.54,0.1,0.71,2
2096,0.45,0.13,0.77,2
2097,0.36,0.21,0.97,2
2098,0.65,0.25,1.33,2
2099,0.91,0.16,1.58,2
2100,0.88,0.01,1.73,2
2101,1.31,-0.16,1.55,2
2102,1.26,-0.24,1.25,2
2103,1.24,-0.29,0.96,2
2104,1.27,-0.27,0.64,2
2105,1.03,-0.26,0.29,2
2106,0.77,-0.26,0.1,2
2107,0.48,-0.24,0.0,2
2108,0.26,-0.17,-0.02,2
2109,0.09,-0.08,0.01,2
2110,-0.11,0.03,0.14,2
2111,-0.21,0.05,0.33,2
2112,-0.21,0.09,0.53,2
2113,-0.17,0.18,0.74,2
2114,-0.01,0.12,0.92,2
2115,-0.07,0.24,1.12,2
2116,0.08,0.13,1.23,2
2117,0.21,0.18,1.36,2
2118,0.21,0.11,1.43,2
2119,0.42,0.08,1.39,2
2120,0.48,-0.01,1.37,2
2121,0.47,0.0,1.26,2
2122,0.67,-0.16,1.21,2
2123,0.48,-0.18,1.09,2
2124,0.58,-0.2,1.01,2
2125,0.59,-0.18,0.92,2
2126,0.63,-0.21,0.81,2
2127,0.59,-0.22,0.76,2
2128,0.54,-0.15,0.74,2
2129,0.49,-0.13,0.78,2
2130,0.41,-0.08,0.86,2
2131,0.38,-0.02,0.92,2
2132,0.4,-0.01,0.96,2
2133,0.42,0.0,0.95,2
2134,0.43,0.0,0.94,2
2135,0.42,-0.01,0.95,2
2136,0.44,-0.02,0.96,2
2137,0.45,-0.02,0.95,2
2138,0.46,-0.02,0.93,2
2139,0.46,-0.01,0.9,2
2140,0.47,-0.02,0.89,2
2141,0.46,-0.01,0.89,2
2142,0.46,-0.01,0.88,2
2143,0.46,-0.03,0.86,2
2144,0.44,-0.01,0.87,2
2145,0.47,-0.02,0.87,2
2146,0.47,-0.01,0.91,2
2147,0.46,-0.04,0.89,2
2148,0.47,-0.01,0.92,2
2149,0.46,-0.03,0.92,2
2150,0.46,-0.02,0.95,2
2151,0.47,-0.01,0.97,2
2152,0.47,-0.02,0.95,2
2153,0.49,-0.02,0.88,2
2154,0.42,-0.02,0.8,2
2155,0.43,0.01,0.79,2
2156,0.43,-0.03,0.87,2
2157,0.45,0.03,0.92,2
2158,0.47,0.0,0.95,2
2159,0.46,-0.07,0.92,2
2160,0.47,-0.03,0.87,2
2161,0.51,0.0,0.88,2
2162,0.46,0.0,0.89,2
2163,0.51,-0.01,0.88,2
2164,0.49,-0.01,0.85,2
2165,0.52,0.0,0.84,2
2166,0.54,-0.01,0.87,2
2167,0.53,-0.01,0.87,2
2168,0.53,-0.01,0.86,2
2169,0.52,-0.01,0.86,2
2170,0.51,-0.01,0.86,2
2171,0.53,0.0,0.87,2
2172,0.53,0.0,0.86,2
2173,0.53,0.0,0.86,2
2174,0.52,-0.01,0.86,2
2175,0.52,-0.01,0.86,0
2176,0.52,0.0,0.85,0
2177,0.53,0.0,0.86,0
2178,0.52,0.0,0.86,0
2179,0.51,0.0,0.86,0
2180,0.52,0.0,0.87,0
2181,0.52,0.0,0.86,0
2182,0.52,0.0,0.86,0
2183,0.52,0.0,0.86,0
2184,0.52,0.0,0.86,0
2185,0.52,0.0,0.86,0
2186,0.52,0.0,0.86,0
2187,0.53,0.0,0.86,0
2188,0.52,0.0,0.86,0
2189,0.51,0.0,0.86,0
2190,0.52,0.0,0.86,0
2191,0.52,0.0,0.86,0
2192,0.52,0.0,0.86,0
2193,0.52,0.0,0.86,0
2194,0.52,0.0,0.86,0
2195,0.52,0.0,0.86,0
2196,0.53,0.0,0.86,0
2197,0.52,0.0,0.86,0
2198,0.53,0.0,0.86,0
2199,0.52,0.0,0.86,0
2200,0.53,0.0,0.86,0
2201,0.55,0.0,0.85,0
2202,0.53,0.0,0.85,0
2203,0.53,0.0,0.86,0
2204,0.52,0.0,0.85,0
2205,0.54,0.0,0.85,0
2206,0.53,0.0,0.85,0
2207,0.53,0.0,0.85,0
2208,0.53,0.0,0.85,0
2209,0.54,0.0,0.85,0
2210,0.54,-0.01,0.85,0
2211,0.53,0.0,0.86,0
2212,0.54,0.0,0.85,0
2213,0.53,0.0,0.85,0
2214,0.54,0.0,0.85,0
2215,0.53,-0.01,0.85,0
2216,0.54,0.0,0.85,0
2217,0.54,0.0,0.85,0
2218,0.53,-0.01,0.85,0
2219,0.53,-0.01,0.85,0
2220,0.55,-0.01,0.85,0
2221,0.53,-0.01,0.85,0
2222,0.54,-0.01,0.85,0
2223,0.54,0.0,0.85,0
2224,0.54,-0.01,0.85,0
2225,0.54,-0.01,0.85,0
2226,0.55,0.0,0.85,0
2227,0.55,0.0,0.85,0
2228,0.54,-0.01,0.85,0
2229,0.54,-0.01,0.85,0
2230,0.54,-0.01,0.85,0
2231,0.55,-0.01,0.85,0
2232,0.54,-0.01,0.84,0
2233,0.55,-0.01,0.84,0
2234,0.55,-0.01,0.84,0
2235,0.55,-0.01,0.85,0
2236,0.56,-0.01,0.85,0
2237,0.54,-0.01,0.85,0
2238,0.54,-0.01,0.84,0
2239,0.55,-0.01,0.84,0
2240,0.55,-0.01,0.84,0
2241,0.55,-0.01,0.85,0
2242,0.54,-0.01,0.85,0
2243,0.55,-0.01,0.84,0
2244,0.55,-0.01,0.85,0
2245,0.54,-0.01,0.85,0
2246,0.55,-0.01,0.84,0
2247,0.55,-0.01,0.85,0
2248,0.54,-0.01,0.84,0
2249,0.54,-0.01,0.84,0
2250,0.55,-0.01,0.85,0
2251,0.55,-0.01,0.85,0
2252,0.55,-0.01,0.85,0
2253,0.54,-0.01,0.84,0
2254,0.56,-0.01,0.84,0
2255,0.55,-0.01,0.85,0
2256,0.54,-0.01,0.85,0
2257,0.55,-0.01,0.84,0
2258,0.55,-0.01,0.84,0
2259,0.56,-0.01,0.85,0
2260,0.54,-0.01,0.85,0
2261,0.55,-0.01,0.84,0
2262,0.56,-0.01,0.84,0
2263,0.56,-0.01,0.84,0
2264,0.56,-0.01,0.84,0
2265,0.55,-0.01,0.85,0
2266,0.56,-0.01,0.84,0
2267,0.56,-0.01,0.84,0
2268,0.55,-0.01,0.84,0
2269,0.55,-0.01,0.84,0
2270,0.57,-0.01,0.84,0
2271,0.56,-0.01,0.84,0
2272,0.57,-0.01,0.84,0
2273,0.55,-0.01,0.83,0
2274,0.58,-0.01,0.82,0
2275,0.55,-0.01,0.84,0
2276,0.58,-0.03,0.86,0
2277,0.52,-0.01,0.84,0
2278,0.57,-0.04,0.81,0
2279,0.55,0.0,0.79,0
2280,0.63,-0.04,0.85,0
2281,0.57,0.0,0.84,0
2282,0.57,0.0,0.86,0
2283,0.52,-0.01,0.86,0
2284,0.55,0.0,0.87,0
2285,0.56,-0.02,0.88,0
2286,0.57,-0.02,0.87,0
2287,0.56,-0.01,0.81,0
2288,0.54,-0.03,0.79,0
2289,0.57,-0.02,0.79,0
2290,0.57,-0.02,0.83,0
2291,0.58,-0.01,0.81,0
2292,0.58,-0.02,0.81,0
2293,0.58,-0.01,0.82,0
2294,0.57,-0.02,0.83,0
2295,0.59,-0.02,0.83,0
2296,0.58,-0.01,0.82,0
2297,0.59,-0.01,0.81,0
2298,0.59,-0.01,0.81,0
2299,0.59,-0.02,0.8,0
2300,0.59,-0.02,0.8,2
2301,0.59,-0.02,0.81,2
2302,0.59,-0.02,0.81,2
2303,0.59,-0.02,0.81,2
2304,0.59,-0.02,0.81,2
2305,0.59,-0.02,0.82,2
2306,0.59,-0.02,0.81,2
2307,0.59,-0.02,0.8,2
2308,0.59,-0.02,0.81,2
2309,0.59,-0.02,0.81,2
2310,0.59,-0.02,0.81,2
2311,0.59,-0.02,0.8,2
2312,0.59,-0.02,0.81,2
2313,0.59,-0.03,0.81,2
2314,0.59,-0.02,0.82,2
2315,0.59,-0.03,0.81,2
2316,0.59,-0.02,0.81,2
2317,0.59,-0.02,0.79,2
2318,0.58,-0.02,0.78,2
2319,0.58,0.0,0.78,2
2320,0.56,0.04,0.8,2
2321,0.44,0.09,0.85,2
2322,0.34,0.09,0.94,2
2323,0.43,0.11,1.23,2
2324,0.66,0.04,1.55,2
2325,0.7,-0.07,1.75,2
2326,0.85,-0.21,1.75,2
2327,0.91,-0.3,1.58,2
2328,1.02,-0.34,1.3,2
2329,1.14,-0.32,1.0,2
2330,1.0,-0.33,0.63,2
2331,0.97,-0.31,0.3,2
2332,0.64,-0.18,0.09,2
2333,0.4,-0.03,0.01,2
2334,0.08,0.06,-0.02,2
2335,-0.15,0.13,0.03,2
2336,-0.28,0.17,0.2,2
2337,-0.45,0.22,0.45,2
2338,-0.41,0.24,0.67,2
2339,-0.36,0.24,0.91,2
2340,-0.2,0.2,0.97,2
2341,-0.06,0.13,1.18,2
2342,0.01,0.04,1.19,2
2343,0.16,0.05,1.37,2
2344,0.12,0.06,1.35,2
2345,0.26,-0.04,1.38,2
2346,0.33,-0.12,1.23,2
2347,0.5,-0.16,1.28,2
2348,0.46,-0.18,1.22,2
2349,0.47,-0.24,1.19,2
2350,0.57,-0.19,1.03,2
2351,0.47,-0.18,0.93,2
2352,0.58,-0.16,0.89,2
2353,0.49,-0.17,0.83,2
2354,0.45,-0.13,0.85,2
2355,0.47,-0.1,0.87,2
2356,0.45,-0.09,0.91,2
2357,0.41,-0.06,0.91,2
2358,0.38,-0.06,0.92,2
2359,0.4,-0.05,0.94,2
2360,0.41,-0.04,0.94,2
2361,0.42,-0.03,0.92,2
2362,0.45,-0.03,0.91,2
2363,0.45,-0.03,0.94,2
2364,0.45,-0.04,0.95,2
2365,0.46,-0.04,0.94,2
2366,0.43,-0.01,0.9,2
2367,0.46,-0.04,0.88,2
2368,0.4,-0.03,0.87,2
2369,0.51,-0.01,0.93,2
2370,0.35,-0.05,0.89,2
2371,0.46,-0.03,0.91,2
2372,0.43,-0.02,0.89,2
2373,0.44,0.0,0.97,2
2374,0.46,-0.02,1.02,2
2375,0.45,-0.04,0.97,2
2376,0.46,-0.04,0.84,2
2377,0.37,0.04,0.79,2
2378,0.52,-0.06,0.87,2
2379,0.39,0.01,0.91,2
2380,0.46,0.01,0.95,2
2381,0.43,0.0,0.96,2
2382,0.51,-0.08,0.95,2
2383,0.48,0.0,0.86,2
2384,0.46,-0.02,0.87,2
2385,0.46,-0.03,0.87,2
2386,0.47,-0.01,0.87,2
2387,0.56,0.0,0.86,2
2388,0.51,-0.01,0.86,2
2389,0.49,-0.02,0.88,2
2390,0.5,-0.02,0.89,2
2391,0.5,-0.02,0.86,2
2392,0.51,-0.01,0.87,2
2393,0.5,-0.01,0.88,2
2394,0.49,-0.02,0.87,2
2395,0.5,-0.01,0.86,2
2396,0.5,-0.02,0.86,2
2397,0.5,-0.02,0.87,2
2398,0.5,-0.01,0.86,2
2399,0.51,-0.01,0.87,2
2400,0.51,-0.02,0.87,0
2401,0.5,-0.02,0.87,0
2402,0.5,-0.02,0.86,0
2403,0.51,-0.01,0.87,0
2404,0.52,-0.01,0.87,0
2405,0.51,-0.01,0.87,0
2406,0.5,-0.01,0.87,0
2407,0.5,-0.01,0.86,0
2408,0.51,-0.01,0.86,0
2409,0.51,0.0,0.86,0
2410,0.51,-0.01,0.87,0
2411,0.51,-0.01,0.87,0
2412,0.51,-0.01,0.87,0
2413,0.5,-0.01,0.86,0
2414,0.51,-0.01,0.86,0
2415,0.52,-0.01,0.86,0
2416,0.51,-0.01,0.86,0
2417,0.51,-0.01,0.87,0
2418,0.52,-0.01,0.87,0
2419,0.51,-0.01,0.86,0
2420,0.51,-0.01,0.86,0
2421,0.51,-0.01,0.86,0
2422,0.52,-0.01,0.86,0
2423,0.51,-0.01,0.86,0
2424,0.52,-0.01,0.87,0
2425,0.52,-0.01,0.86,0
2426,0.52,-0.01,0.87,0
2427,0.52,-0.01,0.87,0
2428,0.53,-0.01,0.86,0
2429,0.53,-0.01,0.86,0
2430,0.52,-0.01,0.86,0
2431,0.52,-0.01,0.86,0
2432,0.53,-0.02,0.86,0
2433,0.52,-0.02,0.86,0
2434,0.52,-0.01,0.86,0
2435,0.53,-0.02,0.86,0
2436,0.52,-0.02,0.86,0
2437,0.52,-0.01,0.86,0
2438,0.53,-0.01,0.86,0
2439,0.52,-0.01,0.85,0
2440,0.52,-0.01,0.86,0
2441,0.52,-0.01,0.86,0
2442,0.52,-0.01,0.86,0
2443,0.52,-0.02,0.86,0
2444,0.52,-0.02,0.86,0
2445,0.52,-0.01,0.86,0
2446,0.53,-0.02,0.86,0
2447,0.53,-0.02,0.86,0
2448,0.52,-0.02,0.86,0
2449,0.52,-0.02,0.86,0
2450,0.52,-0.01,0.85,0
2451,0.52,-0.01,0.86,0
2452,0.52,-0.01,0.86,0
2453,0.52,-0.01,0.86,0
2454,0.52,-0.01,0.86,0
2455,0.52,-0.01,0.86,0
2456,0.52,-0.01,0.86,0
2457,0.52,-0.01,0.86,0
2458,0.52,-0.01,0.86,0
2459,0.52,-0.02,0.86,0
2460,0.53,-0.02,0.86,0
2461,0.52,-0.01,0.86,0
2462,0.52,-0.01,0.86,0
2463,0.52,-0.01,0.86,0
2464,0.52,-0.01,0.86,0
2465,0.52,-0.01,0.86,0
2466,0.52,-0.01,0.86,0
2467,0.52,-0.02,0.86,0
2468,0.52,-0.02,0.86,0
2469,0.52,-0.02,0.86,0
2470,0.52,-0.02,0.86,0
2471,0.52,-0.02,0.86,0
2472,0.52,-0.02,0.86,0
2473,0.52,-0.02,0.86,0
2474,0.52,-0.01,0.86,0
2475,0.52,-0.01,0.86,0
2476,0.52,-0.01,0.86,0
2477,0.52,-0.02,0.86,0
2478,0.52,-0.02,0.86,0
2479,0.52,-0.01,0.86,0
2480,0.52,-0.01,0.86,0
2481,0.51,-0.01,0.86,0
2482,0.52,-0.02,0.86,0
2483,0.52,-0.01,0.86,0
2484,0.52,-0.02,0.86,0
2485,0.52,-0.02,0.85,0
2486,0.52,-0.02,0.85,0
2487,0.52,-0.02,0.86,0
2488,0.52,-0.02,0.86,0
2489,0.52,-0.02,0.86,0
2490,0.52,-0.02,0.86,0
2491,0.52,-0.01,0.86,0
2492,0.52,-0.02,0.86,0
2493,0.51,-0.02,0.85,0
2494,0.52,-0.02,0.85,0
2495,0.52,-0.02,0.86,0
2496,0.55,-0.02,0.87,0
2497,0.58,-0.03,0.92,0
2498,0.5,-0.02,0.91,0
2499,0.48,-0.02,0.86,0
2500,0.45,0.02,0.81,0
2501,0.51,0.0,0.84,0
2502,0.52,-0.05,0.86,0
2503,0.54,-0.07,0.85,0
2504,0.56,-0.12,0.84,0
2505,0.58,-0.1,0.85,0
2506,0.58,-0.04,0.85,0
2507,0.56,-0.04,0.85,0
2508,0.52,-0.01,0.87,0
2509,0.54,-0.01,0.87,0
2510,0.53,-0.01,0.87,0
2511,0.53,-0.01,0.86,0
2512,0.53,-0.02,0.85,0
2513,0.52,-0.02,0.84,0
2514,0.51,-0.03,0.84,0
2515,0.52,-0.04,0.83,0
2516,0.56,-0.04,0.83,0
2517,0.57,-0.05,0.83,0
2518,0.56,-0.04,0.84,0
2519,0.54,-0.03,0.84,0
2520,0.54,-0.01,0.85,0
2521,0.54,0.0,0.86,0
2522,0.55,0.02,0.87,0
2523,0.53,0.03,0.88,0
2524,0.5,0.04,0.88,0
2525,0.49,0.03,0.88,0
2526,0.51,0.01,0.87,0
2527,0.51,-0.01,0.85,0
2528,0.47,-0.01,0.81,0
2529,0.54,0.0,0.85,0
2530,0.54,-0.01,0.86,0
2531,0.55,-0.02,0.86,0
2532,0.54,0.0,0.87,0
2533,0.53,-0.01,0.87,0
2534,0.57,-0.01,0.85,0
2535,0.46,-0.02,0.84,0
2536,0.56,-0.01,0.83,0
2537,0.43,-0.02,0.82,0
2538,0.54,-0.01,0.88,0
2539,0.4,0.03,0.89,0
2540,0.56,-0.03,0.91,0
2541,0.41,0.01,0.91,0
2542,0.5,-0.02,0.92,0
2543,0.45,-0.02,0.91,0
2544,0.46,0.0,0.94,0
2545,0.45,0.0,0.93,0
2546,0.53,0.01,0.9,0
2547,0.53,-0.04,0.86,0
2548,0.46,-0.01,0.84,0
2549,0.51,0.0,0.86,0
2550,0.5,-0.01,0.87,0
2551,0.51,0.01,0.85,0
2552,0.51,0.0,0.86,0
2553,0.53,-0.01,0.87,0
2554,0.5,-0.01,0.87,0
2555,0.52,-0.01,0.86,0
2556,0.52,-0.01,0.86,0
2557,0.52,-0.01,0.86,0
2558,0.51,-0.02,0.86,0
2559,0.52,-0.02,0.86,0
2560,0.52,-0.02,0.86,0
2561,0.52,-0.02,0.86,0
2562,0.52,-0.02,0.86,0
2563,0.52,-0.01,0.86,0
2564,0.52,-0.01,0.86,0
2565,0.52,-0.02,0.86,0
2566,0.52,-0.02,0.86,0
2567,0.52,-0.02,0.86,0
2568,0.52,-0.02,0.86,0
2569,0.52,-0.02,0.86,0
2570,0.52,-0.02,0.86,0
2571,0.52,-0.02,0.86,0
2572,0.51,-0.02,0.86,0
2573,0.52,-0.02,0.86,0
2574,0.52,-0.02,0.86,0
2575,0.52,-0.02,0.86,2
2576,0.53,-0.03,0.86,2
2577,0.52,-0.02,0.86,2
2578,0.52,-0.02,0.86,2
2579,0.52,-0.02,0.86,2
2580,0.52,-0.02,0.86,2
2581,0.52,-0.02,0.85,2
2582,0.52,-0.03,0.86,2
2583,0.52,-0.02,0.86,2
2584,0.52,-0.02,0.86,2
2585,0.52,-0.02,0.86,2
2586,0.52,-0.02,0.86,2
2587,0.52,-0.02,0.86,2
2588,0.52,-0.02,0.86,2
2589,0.51,-0.02,0.86,2
2590,0.52,-0.02,0.86,2
2591,0.52,-0.02,0.86,2
2592,0.51,-0.02,0.85,2
2593,0.51,-0.01,0.84,2
2594,0.47,0.0,0.86,2
2595,0.42,0.08,0.87,2
2596,0.26,0.11,0.88,2
2597,0.2,0.12,1.04,2
2598,0.29,0.13,1.47,2
2599,0.47,0.06,1.83,2
2600,0.62,0.0,1.91,2
2601,0.97,-0.11,1.7,2
2602,1.01,-0.19,1.4,2
2603,1.04,-0.23,1.08,2
2604,0.94,-0.23,0.78,2
2605,0.78,-0.22,0.45,2
2606,0.6,-0.21,0.23,2
2607,0.45,-0.14,0.12,2
2608,0.19,-0.08,0.08,2
2609,-0.04,-0.02,0.1,2
2610,-0.26,0.05,0.24,2
2611,-0.37,0.07,0.37,2
2612,-0.38,0.09,0.63,2
2613,-0.34,0.17,0.66,2
2614,-0.17,0.18,0.98,2
2615,-0.25,0.23,0.96,2
2616,0.1,0.08,1.21,2
2617,-0.12,0.22,1.22,2
2618,0.13,0.06,1.32,2
2619,0.17,0.07,1.33,2
2620,0.25,-0.03,1.38,2
2621,0.35,-0.03,1.35,2
2622,0.46,-0.12,1.3,2
2623,0.39,-0.13,1.2,2
2624,0.44,-0.14,1.09,2
2625,0.48,-0.16,0.99,2
2626,0.4,-0.15,0.89,2
2627,0.46,-0.13,0.88,2
2628,0.42,-0.08,0.86,2
2629,0.36,-0.04,0.91,2
2630,0.35,0.0,0.94,2
2631,0.32,0.0,0.96,2
2632,0.29,-0.01,0.96,2
2633,0.34,-0.01,0.96,2
2634,0.35,0.0,0.97,2
2635,0.36,0.0,0.96,2
2636,0.36,0.01,0.96,2
2637,0.36,0.02,0.96,2
2638,0.36,0.02,0.95,2
2639,0.39,0.01,0.93,2
2640,0.37,0.01,0.94,2
2641,0.37,0.02,0.94,2
2642,0.35,0.02,0.96,2
2643,0.42,-0.01,0.93,2
2644,0.32,0.03,0.91,2
2645,0.27,0.02,0.89,2
2646,0.38,0.04,0.97,2
2647,0.43,0.0,0.99,2
2648,0.37,0.01,0.99,2
2649,0.38,0.01,0.99,2
2650,0.28,0.01,0.97,2
2651,0.43,-0.02,0.93,2
2652,0.31,0.01,0.87,2
2653,0.36,0.01,0.87,2
2654,0.31,0.04,0.95,2
2655,0.37,0.03,0.98,2
2656,0.31,0.02,0.98,2
2657,0.39,-0.01,0.97,2
2658,0.4,0.03,0.94,2
2659,0.37,0.02,0.94,2
2660,0.37,0.01,0.92,2
2661,0.42,0.02,0.89,2
2662,0.42,0.03,0.92,2
2663,0.41,0.02,0.94,2
2664,0.42,0.02,0.93,2
2665,0.43,0.01,0.93,2
2666,0.45,0.01,0.93,2
2667,0.41,0.02,0.91,2
2668,0.42,0.02,0.91,2
2669,0.43,0.03,0.91,2
2670,0.43,0.02,0.92,2
2671,0.42,0.02,0.91,2
2672,0.44,0.01,0.91,2
2673,0.44,0.01,0.92,2
2674,0.43,0.02,0.93,2
2675,0.44,0.02,0.92,0
2676,0.43,0.03,0.93,0
2677,0.44,0.01,0.92,0
2678,0.42,0.01,0.91,0
2679,0.44,0.01,0.91,0
2680,0.44,0.02,0.91,0
2681,0.44,0.02,0.92,0
2682,0.43,0.01,0.92,0
2683,0.43,0.02,0.92,0
2684,0.44,0.01,0.92,0
2685,0.43,0.01,0.92,0
2686,0.43,0.01,0.92,0
2687,0.44,0.01,0.92,0
2688,0.43,0.02,0.92,0
2689,0.44,0.01,0.92,0
2690,0.43,0.01,0.91,0
2691,0.44,0.02,0.91,0
2692,0.43,0.01,0.91,0
2693,0.43,0.01,0.92,0
2694,0.44,0.01,0.91,0
2695,0.43,0.01,0.91,0
2696,0.43,0.02,0.91,0
2697,0.44,0.02,0.92,0
2698,0.44,0.01,0.92,0
2699,0.45,0.01,0.92,0
2700,0.44,0.01,0.92,0
2701,0.44,0.01,0.91,0
2702,0.45,0.01,0.91,0
2703,0.45,0.01,0.91,0
2704,0.45,0.01,0.92,0
2705,0.44,0.01,0.91,0
2706,0.45,0.01,0.91,0
2707,0.46,0.01,0.91,0
2708,0.45,0.01,0.91,0
2709,0.44,0.02,0.9,0
2710,0.45,0.01,0.9,0
2711,0.45,0.01,0.92,0
2712,0.45,0.0,0.91,0
2713,0.45,0.0,0.91,0
2714,0.45,0.01,0.91,0
2715,0.45,0.01,0.91,0
2716,0.45,0.01,0.9,0
2717,0.45,0.01,0.91,0
2718,0.45,0.01,0.91,0
2719,0.45,0.01,0.91,0
2720,0.45,0.01,0.91,0
2721,0.45,0.01,0.92,0
2722,0.45,0.01,0.91,0
2723,0.45,0.01,0.91,0
2724,0.45,0.01,0.9,0
2725,0.45,0.01,0.91,0
2726,0.45,0.01,0.91,0
2727,0.45,0.01,0.9,0
2728,0.45,0.01,0.91,0
2729,0.45,0.01,0.91,0
2730,0.45,0.01,0.91,0
2731,0.45,0.01,0.91,0
2732,0.45,0.01,0.91,0
2733,0.45,0.01,0.91,0
2734,0.45,0.01,0.9,0
2735,0.45,0.01,0.91,0
2736,0.45,0.01,0.92,0
2737,0.45,0.01,0.91,0
2738,0.45,0.01,0.91,0
2739,0.45,0.01,0.91,0
2740,0.46,0.01,0.91,0
2741,0.45,0.01,0.91,0
2742,0.45,0.01,0.91,0
2743,0.45,0.01,0.91,0
2744,0.45,0.01,0.9,0
2745,0.46,0.01,0.91,0
2746,0.45,0.01,0.91,0
2747,0.45,0.01,0.92,0
2748,0.45,0.01,0.91,0
2749,0.45,0.01,0.91,0
2750,0.45,0.01,0.91,0
2751,0.45,0.01,0.91,0
2752,0.45,0.01,0.91,0
2753,0.45,0.01,0.91,0
2754,0.45,0.01,0.91,0
2755,0.45,0.01,0.91,0
2756,0.45,0.01,0.91,0
2757,0.45,0.01,0.9,0
2758,0.45,0.01,0.91,0
2759,0.45,0.01,0.91,0
2760,0.46,0.01,0.9,0
2761,0.45,0.01,0.9,0
2762,0.45,0.01,0.91,0
2763,0.45,0.01,0.91,0
2764,0.45,0.01,0.92,0
2765,0.45,0.0,0.91,0
2766,0.46,0.01,0.91,0
2767,0.45,0.01,0.91,0
2768,0.46,0.01,0.9,0
2769,0.45,0.01,0.9,0
2770,0.45,0.01,0.91,0
2771,0.46,0.01,0.91,0
2772,0.46,0.01,0.91,0
2773,0.46,0.01,0.91,0
2774,0.45,0.01,0.91,0
2775,0.46,0.01,0.91,0
2776,0.45,0.01,0.9,0
2777,0.46,0.01,0.9,0
2778,0.46,0.01,0.9,0
2779,0.46,0.01,0.91,0
2780,0.45,0.01,0.9,0
2781,0.46,0.01,0.92,0
2782,0.45,0.01,0.92,0
2783,0.45,0.01,0.9,0
2784,0.45,0.01,0.9,0
2785,0.46,0.02,0.91,0
2786,0.45,0.01,0.91,0
2787,0.45,0.01,0.9,0
2788,0.45,0.01,0.91,0
2789,0.46,0.01,0.91,0
2790,0.45,0.01,0.9,0
2791,0.44,0.01,0.9,0
2792,0.46,0.0,0.91,0
2793,0.45,0.0,0.93,0
2794,0.41,0.0,0.93,0
2795,0.5,0.01,0.91,0
2796,0.38,0.03,0.93,0
2797,0.43,0.0,0.93,0
2798,0.42,0.02,0.91,0
2799,0.42,0.01,0.92,0
2800,0.4,0.0,0.91,0
2801,0.39,0.01,0.92,0
2802,0.42,0.01,0.94,0
2803,0.42,0.0,0.96,0
2804,0.42,0.01,0.94,0
2805,0.4,0.01,0.9,0
2806,0.41,0.0,0.92,0
2807,0.41,0.01,0.9,0
2808,0.45,0.0,0.9,0
2809,0.43,0.01,0.92,0
2810,0.49,-0.01,0.91,0
2811,0.45,0.01,0.91,0
2812,0.46,0.0,0.91,0
2813,0.45,0.0,0.91,0
2814,0.46,0.0,0.91,0
2815,0.46,0.01,0.9,0
2816,0.46,0.0,0.89,0
2817,0.45,0.0,0.9,0
2818,0.46,0.0,0.9,0
2819,0.46,0.0,0.9,0
2820,0.46,0.0,0.9,0
2821,0.46,0.0,0.91,0
2822,0.46,0.0,0.9,0
2823,0.46,0.0,0.9,0
2824,0.46,0.0,0.9,0
2825,0.46,0.0,0.9,2
2826,0.46,0.0,0.9,2
2827,0.46,0.0,0.91,2
2828,0.46,0.0,0.91,2
2829,0.46,0.0,0.91,2
2830,0.46,0.0,0.9,2
2831,0.46,0.0,0.9,2
2832,0.45,0.0,0.91,2
2833,0.46,0.0,0.9,2
2834,0.46,0.0,0.9,2
2835,0.46,0.0,0.9,2
2836,0.46,0.0,0.9,2
2837,0.46,0.0,0.9,2
2838,0.45,0.0,0.9,2
2839,0.46,0.0,0.89,2
2840,0.46,0.0,0.88,2
2841,0.46,0.01,0.87,2
2842,0.45,0.01,0.87,2
2843,0.42,0.1,0.86,2
2844,0.3,0.11,0.88,2
2845,0.19,0.15,0.96,2
2846,0.14,0.22,1.19,2
2847,0.4,0.19,1.5,2
2848,0.5,0.12,1.72,2
2849,0.71,0.1,1.82,2
2850,0.96,-0.1,1.66,2
2851,0.96,-0.24,1.36,2
2852,0.97,-0.25,1.03,2
2853,0.93,-0.26,0.77,2
2854,0.8,-0.3,0.49,2
2855,0.58,-0.39,0.29,2
2856,0.46,-0.24,0.23,2
2857,0.25,-0.07,0.17,2
2858,-0.05,0.03,0.13,2
2859,-0.25,0.07,0.22,2
2860,-0.38,0.11,0.38,2
2861,-0.48,0.11,0.59,2
2862,-0.48,0.18,0.72,2
2863,-0.35,0.2,0.92,2
2864,-0.27,0.18,0.96,2
2865,-0.26,0.08,1.11,2
2866,-0.14,0.03,1.17,2
2867,0.0,0.01,1.23,2
2868,0.06,-0.02,1.29,2
2869,0.18,-0.03,1.31,2
2870,0.33,-0.11,1.26,2
2871,0.36,-0.13,1.18,2
2872,0.36,-0.2,1.11,2
2873,0.35,-0.14,1.08,2
2874,0.53,-0.14,1.06,2
2875,0.45,-0.13,0.98,2
2876,0.45,-0.1,0.97,2
2877,0.5,-0.08,0.94,2
2878,0.46,-0.07,0.91,2
2879,0.46,-0.04,0.92,2
2880,0.46,-0.05,0.94,2
2881,0.43,-0.02,0.95,2
2882,0.46,-0.02,0.95,2
2883,0.44,-0.01,0.92,2
2884,0.42,0.01,0.91,2
2885,0.45,0.01,0.93,2
2886,0.46,0.01,0.94,2
2887,0.46,0.0,0.9,2
2888,0.45,0.02,0.9,2
2889,0.47,0.01,0.91,2
2890,0.44,0.03,0.93,2
2891,0.47,0.01,0.92,2
2892,0.38,0.04,0.9,2
2893,0.43,0.01,0.88,2
2894,0.34,0.05,0.93,2
2895,0.43,0.02,0.95,2
2896,0.39,0.03,0.95,2
2897,0.41,0.03,0.97,2
2898,0.45,0.02,0.98,2
2899,0.45,-0.02,0.92,2
2900,0.37,0.05,0.86,2
2901,0.42,0.04,0.86,2
2902,0.38,0.02,0.92,2
2903,0.42,0.05,0.94,2
2904,0.41,0.03,0.95,2
2905,0.42,0.02,0.98,2
2906,0.44,0.0,0.97,2
2907,0.45,0.04,0.92,2
2908,0.42,0.04,0.91,2
2909,0.39,0.02,0.88,2
2910,0.46,0.03,0.88,2
2911,0.46,0.02,0.89,2
2912,0.45,0.02,0.89,2
2913,0.46,0.02,0.89,2
2914,0.46,0.02,0.89,2
2915,0.46,0.02,0.9,2
2916,0.46,0.03,0.91,2
2917,0.46,0.02,0.9,2
2918,0.46,0.02,0.91,2
2919,0.46,0.02,0.9,2
2920,0.46,0.02,0.9,2
2921,0.46,0.02,0.9,2
2922,0.46,0.02,0.89,2
2923,0.46,0.02,0.89,2
2924,0.46,0.02,0.9,2
2925,0.46,0.02,0.9,0
2926,0.46,0.02,0.9,0
2927,0.46,0.01,0.9,0
2928,0.46,0.02,0.9,0
2929,0.46,0.01,0.9,0
2930,0.46,0.01,0.9,0
2931,0.46,0.01,0.91,0
2932,0.46,0.01,0.9,0
2933,0.46,0.02,0.9,0
2934,0.46,0.01,0.9,0
2935,0.46,0.02,0.9,0
2936,0.46,0.02,0.91,0
2937,0.46,0.02,0.9,0
2938,0.46,0.01,0.9,0
2939,0.46,0.01,0.9,0
2940,0.46,0.01,0.89,0
2941,0.46,0.01,0.89,0
2942,0.46,0.01,0.9,0
2943,0.46,0.01,0.9,0
2944,0.46,0.01,0.91,0
2945,0.46,0.01,0.91,0
2946,0.46,0.01,0.9,0
2947,0.46,0.01,0.9,0
2948,0.46,0.01,0.88,0
2949,0.46,0.0,0.87,0
2950,0.46,0.0,0.88,0
2951,0.46,-0.01,0.88,0
2952,0.45,-0.01,0.88,0
2953,0.46,-0.02,0.91,0
2954,0.46,-0.01,0.92,0
2955,0.47,-0.01,0.92,0
2956,0.47,-0.01,0.91,0
2957,0.45,0.0,0.88,0
2958,0.44,0.0,0.86,0
2959,0.44,0.0,0.87,0
2960,0.45,-0.02,0.89,0
2961,0.47,-0.03,0.88,0
2962,0.49,-0.04,0.88,0
2963,0.47,-0.05,0.87,0
2964,0.5,-0.04,0.82,0
2965,0.52,-0.05,0.81,0
2966,0.51,-0.05,0.83,0
2967,0.51,-0.04,0.86,0
2968,0.56,-0.02,0.87,0
2969,0.53,-0.01,0.85,0
2970,0.58,-0.01,0.85,0
2971,0.59,0.0,0.86,0
2972,0.57,0.03,0.86,0
2973,0.52,0.04,0.87,0
2974,0.51,0.05,0.86,0
2975,0.49,0.05,0.85,0
2976,0.53,0.04,0.86,0
2977,0.54,0.04,0.82,0
2978,0.58,0.03,0.84,0
2979,0.58,0.04,0.79,0
2980,0.58,0.06,0.81,0
2981,0.58,0.07,0.79,0
2982,0.58,0.1,0.8,0
2983,0.52,0.13,0.86,0
2984,0.51,0.13,0.91,0
2985,0.5,0.13,0.82,0
2986,0.66,0.14,0.75,0
2987,0.88,0.11,0.69,0
2988,0.9,0.11,0.57,0
2989,0.92,0.1,0.46,0
2990,0.86,0.09,0.46,0
2991,0.8,0.09,0.54,0
2992,0.73,0.1,0.63,0
2993,0.64,0.11,0.73,0
2994,0.58,0.14,0.77,0
2995,0.55,0.16,0.84,0
2996,0.58,0.19,0.86,0
2997,0.58,0.2,0.84,0
2998,0.56,0.19,0.84,0
2999,0.55,0.19,0.85,0
3000,0.51,0.19,0.86,0
3001,0.47,0.19,0.84,0
3002,0.48,0.2,0.84,0
3003,0.54,0.2,0.91,0
3004,0.46,0.19,0.8,0
3005,0.4,0.23,0.74,0
3006,0.48,0.23,0.85,0
3007,0.54,0.2,0.84,0
3008,0.54,0.19,0.83,0
3009,0.58,0.19,0.85,0
3010,0.57,0.2,0.79,0
3011,0.58,0.23,0.77,0
3012,0.58,0.23,0.76,0
3013,0.62,0.24,0.75,0
3014,0.62,0.25,0.74,0
3015,0.65,0.26,0.74,0
3016,0.65,0.24,0.73,0
3017,0.66,0.24,0.74,0
3018,0.67,0.24,0.74,0
3019,0.65,0.24,0.71,0
3020,0.66,0.25,0.7,0
3021,0.69,0.26,0.7,0
3022,0.68,0.3,0.67,0
3023,0.67,0.3,0.65,0
3024,0.66,0.28,0.66,0
3025,0.67,0.26,0.68,0
3026,0.67,0.29,0.62,0
3027,0.66,0.26,0.68,0
3028,0.77,0.36,0.7,0
3029,0.69,0.37,0.64,0
3030,0.68,0.37,0.63,0
3031,0.68,0.32,0.63,0
3032,0.72,0.3,0.62,0
3033,0.73,0.35,0.59,0
3034,0.71,0.36,0.57,0
3035,0.72,0.38,0.59,0
3036,0.67,0.42,0.6,0
3037,0.73,0.31,0.62,0
3038,0.73,0.31,0.6,0
3039,0.73,0.33,0.6,0
3040,0.73,0.32,0.6,0
3041,0.73,0.32,0.59,0
3042,0.73,0.31,0.59,0
3043,0.73,0.3,0.6,0
3044,0.73,0.3,0.59,0
3045,0.73,0.3,0.6,0
3046,0.73,0.3,0.59,0
3047,0.73,0.3,0.59,0
3048,0.74,0.29,0.59,0
3049,0.73,0.29,0.59,0
