sequence,accelx,accely,accelz,event
0,0.04,-0.08,0.99,0
1,0.05,-0.08,0.98,0
2,0.06,-0.08,0.98,0
3,0.08,-0.06,0.99,0
4,0.09,-0.06,0.99,0
5,0.08,-0.06,0.99,0
6,0.09,-0.06,0.99,0
7,0.08,-0.06,0.99,0
8,0.09,-0.06,0.99,0
9,0.08,-0.06,0.99,0
10,0.09,-0.07,0.99,0
11,0.08,-0.07,0.99,0
12,0.09,-0.06,1.0,0
13,0.08,-0.06,0.99,0
14,0.09,-0.06,0.99,0
15,0.08,-0.05,0.99,0
16,0.08,-0.05,0.99,0
17,0.08,-0.05,0.99,0
18,0.08,-0.05,0.99,0
19,0.08,-0.05,0.99,0
20,0.07,-0.05,0.99,0
21,0.08,-0.05,0.99,0
22,0.08,-0.05,0.99,0
23,0.07,-0.04,0.99,0
24,0.08,-0.04,1.0,0
25,0.07,-0.04,0.99,0
26,0.08,-0.05,0.99,0
27,0.07,-0.05,0.98,0
28,0.08,-0.04,0.99,0
29,0.07,-0.04,0.99,0
30,0.07,-0.04,0.99,0
31,0.07,-0.04,0.99,0
32,0.07,-0.04,0.98,0
33,0.08,-0.04,0.99,0
34,0.06,-0.04,0.99,0
35,0.07,-0.04,0.99,0
36,0.07,-0.04,0.99,0
37,0.07,-0.04,0.99,0
38,0.06,-0.04,0.99,0
39,0.06,-0.04,0.99,0
40,0.07,-0.05,0.99,0
41,0.06,-0.04,0.99,0
42,0.07,-0.04,0.99,0
43,0.05,-0.04,0.99,0
44,0.05,-0.04,0.99,0
45,0.07,-0.05,0.99,0
46,0.06,-0.04,0.99,0
47,0.06,-0.04,0.99,0
48,0.07,-0.03,0.98,0
49,0.06,-0.04,0.99,0
50,0.08,-0.04,0.99,0
51,0.04,-0.03,0.98,0
52,0.05,-0.05,1.0,0
53,0.07,-0.05,0.98,0
54,0.07,-0.04,0.99,0
55,0.06,-0.04,0.98,0
56,0.05,-0.04,1.0,0
57,0.02,-0.06,0.98,0
58,0.04,-0.03,0.99,0
59,-0.01,-0.04,0.99,0
60,0.03,-0.05,0.99,0
61,0.07,-0.03,1.0,0
62,0.0,-0.02,0.99,0
63,0.05,-0.05,1.03,0
64,0.02,-0.05,1.0,0
65,0.03,-0.04,1.02,0
66,0.01,-0.04,1.02,0
67,0.08,-0.05,1.02,0
68,0.11,-0.04,0.97,0
69,0.04,-0.01,0.97,0
70,0.03,-0.02,0.96,0
71,0.08,-0.01,0.99,0
72,0.06,-0.02,0.99,0
73,0.07,-0.02,1.0,0
74,0.06,-0.03,1.0,0
75,0.05,-0.03,0.99,2
76,0.04,-0.03,0.99,2
77,0.06,-0.03,0.99,2
78,0.06,-0.03,0.99,2
79,0.07,-0.03,0.98,2
80,0.06,-0.03,0.98,2
81,0.07,-0.03,0.99,2
82,0.06,-0.04,0.99,2
83,0.05,-0.03,0.99,2
84,0.07,-0.03,1.0,2
85,0.07,-0.03,0.99,2
86,0.06,-0.03,0.99,2
87,0.07,-0.03,0.98,2
88,0.07,-0.03,0.99,2
89,0.07,-0.03,0.98,2
90,0.07,-0.03,0.98,2
91,0.06,-0.02,0.98,2
92,0.03,0.0,0.98,2
93,0.09,0.01,0.99,2
94,0.04,0.06,0.96,2
95,0.1,0.11,0.93,2
96,0.09,0.17,0.92,2
97,0.08,0.22,0.97,2
98,0.05,0.24,1.01,2
99,0.04,0.26,1.11,2
100,-0.03,0.27,1.2,2
101,-0.04,0.24,1.34,2
102,-0.17,0.12,1.59,2
103,0.09,0.0,1.88,2
104,0.45,-0.21,1.85,2
105,0.86,-0.37,1.64,2
106,0.86,-0.38,1.16,2
107,1.01,-0.32,0.77,2
108,0.79,-0.3,0.47,2
109,0.55,-0.29,0.31,2
110,0.36,-0.25,0.23,2
111,0.09,-0.23,0.18,2
112,0.02,-0.16,0.24,2
113,-0.21,-0.12,0.34,2
114,-0.16,0.01,0.5,2
115,-0.32,0.08,0.53,2
116,-0.16,0.06,0.76,2
117,-0.43,0.17,0.84,2
118,-0.13,0.15,1.03,2
119,-0.38,0.27,1.2,2
120,-0.06,0.2,1.26,2
121,-0.08,0.17,1.41,2
122,-0.07,0.0,1.43,2
123,0.23,-0.04,1.41,2
124,0.01,-0.08,1.28,2
125,0.21,-0.14,1.2,2
126,0.24,-0.13,1.16,2
127,0.37,-0.16,1.18,2
128,0.18,-0.06,1.08,2
129,0.14,0.02,1.01,2
130,0.09,0.06,0.96,2
131,0.16,0.05,0.96,2
132,0.18,0.08,0.97,2
133,0.17,0.05,0.97,2
134,0.16,0.06,0.99,2
135,0.16,0.04,0.99,2
136,0.17,0.05,0.99,2
137,0.19,0.06,0.98,2
138,0.17,0.05,0.97,2
139,0.2,0.06,0.98,2
140,0.19,0.06,0.98,2
141,0.2,0.06,0.99,2
142,0.2,0.04,0.97,2
143,0.19,0.06,0.96,2
144,0.21,0.04,0.97,2
145,0.17,0.04,0.98,2
146,0.2,0.04,0.97,2
147,0.1,0.05,0.97,2
148,0.22,0.04,0.97,2
149,0.16,0.09,1.0,2
150,0.16,0.04,1.0,2
151,0.19,0.05,1.0,2
152,0.17,0.07,1.03,2
153,0.13,0.05,1.02,2
154,0.15,0.03,0.96,2
155,0.12,0.1,0.91,2
156,0.14,0.07,0.97,2
157,0.12,0.05,0.97,2
158,0.15,0.08,1.01,2
159,0.17,0.04,1.04,2
160,0.09,0.05,1.04,2
161,0.11,0.05,0.99,2
162,0.17,0.06,0.97,2
163,0.18,0.06,0.97,2
164,0.17,0.07,0.97,2
165,0.17,0.05,0.97,2
166,0.18,0.06,0.97,2
167,0.17,0.06,0.97,2
168,0.17,0.06,0.98,2
169,0.18,0.05,0.98,2
170,0.18,0.07,0.98,2
171,0.19,0.06,0.99,2
172,0.18,0.05,0.98,2
173,0.16,0.07,0.98,2
174,0.17,0.06,0.97,2
175,0.18,0.06,0.98,0
176,0.18,0.06,0.98,0
177,0.18,0.06,0.98,0
178,0.17,0.06,0.98,0
179,0.17,0.06,0.97,0
180,0.17,0.06,0.98,0
181,0.17,0.06,0.98,0
182,0.19,0.05,0.99,0
183,0.18,0.06,0.98,0
184,0.18,0.06,0.98,0
185,0.18,0.06,0.98,0
186,0.18,0.06,0.98,0
187,0.17,0.06,0.97,0
188,0.18,0.06,0.98,0
189,0.18,0.06,0.98,0
190,0.18,0.07,0.98,0
191,0.18,0.06,0.98,0
192,0.18,0.07,0.98,0
193,0.18,0.06,0.98,0
194,0.18,0.06,0.98,0
195,0.18,0.06,0.97,0
196,0.18,0.06,0.97,0
197,0.18,0.06,0.97,0
198,0.19,0.06,0.98,0
199,0.19,0.06,0.98,0
200,0.18,0.06,0.98,0
201,0.18,0.05,0.98,0
202,0.18,0.06,0.98,0
203,0.19,0.06,0.98,0
204,0.2,0.06,0.98,0
205,0.19,0.06,0.97,0
206,0.19,0.07,0.97,0
207,0.19,0.06,0.98,0
208,0.19,0.07,0.98,0
209,0.2,0.1,0.98,0
210,0.2,0.08,0.98,0
211,0.2,0.05,0.98,0
212,0.19,0.06,0.97,0
213,0.2,0.06,0.98,0
214,0.2,0.06,0.97,0
215,0.19,0.07,0.97,0
216,0.2,0.06,0.97,0
217,0.19,0.06,0.98,0
218,0.19,0.06,0.98,0
219,0.2,0.06,0.98,0
220,0.19,0.05,0.98,0
221,0.2,0.06,0.97,0
222,0.2,0.06,0.97,0
223,0.2,0.06,0.98,0
224,0.2,0.06,0.98,0
225,0.2,0.06,0.97,0
226,0.2,0.05,0.98,0
227,0.2,0.06,0.97,0
228,0.2,0.06,0.97,0
229,0.2,0.07,0.97,0
230,0.21,0.06,0.97,0
231,0.2,0.06,0.98,0
232,0.19,0.06,0.98,0
233,0.2,0.05,0.98,0
234,0.2,0.05,0.97,0
235,0.2,0.06,0.97,0
236,0.2,0.06,0.97,0
237,0.2,0.05,0.98,0
238,0.21,0.05,0.98,0
239,0.2,0.06,0.98,0
240,0.2,0.06,0.98,0
241,0.2,0.06,0.97,0
242,0.2,0.06,0.97,0
243,0.2,0.06,0.97,0
244,0.2,0.05,0.97,0
245,0.2,0.06,0.97,0
246,0.21,0.05,0.98,0
247,0.21,0.05,0.98,0
248,0.2,0.06,0.98,0
249,0.2,0.05,0.98,0
250,0.2,0.06,0.98,0
251,0.21,0.05,0.97,0
252,0.2,0.05,0.98,0
253,0.21,0.05,0.98,0
254,0.2,0.05,0.97,0
255,0.2,0.05,0.98,0
256,0.2,0.05,0.97,0
257,0.21,0.05,0.98,0
258,0.2,0.05,0.97,0
259,0.2,0.05,0.97,0
260,0.2,0.05,0.98,0
261,0.2,0.05,0.98,0
262,0.2,0.05,0.98,0
263,0.2,0.05,0.97,0
264,0.21,0.05,0.98,0
265,0.2,0.05,0.97,0
266,0.2,0.05,0.97,0
267,0.2,0.05,0.98,0
268,0.2,0.05,0.98,0
269,0.2,0.05,0.97,0
270,0.2,0.05,0.97,0
271,0.2,0.05,0.97,0
272,0.2,0.06,0.98,0
273,0.2,0.05,0.97,0
274,0.2,0.05,0.97,0
275,0.21,0.05,0.98,0
276,0.2,0.05,0.97,0
277,0.2,0.05,0.97,0
278,0.19,0.05,0.97,0
279,0.2,0.05,0.97,0
280,0.18,0.05,0.98,0
281,0.17,0.04,0.97,0
282,0.19,0.06,0.99,0
283,0.17,0.05,0.98,0
284,0.19,0.04,0.98,0
285,0.17,0.05,0.98,0
286,0.18,0.05,0.98,0
287,0.18,0.05,0.98,0
288,0.15,0.05,0.97,0
289,0.19,0.05,0.98,0
290,0.16,0.05,0.97,0
291,0.19,0.04,0.98,0
292,0.14,0.07,1.01,0
293,0.17,0.05,1.02,0
294,0.15,0.06,1.0,0
295,0.2,0.05,1.01,0
296,0.16,0.05,0.98,0
297,0.21,0.06,0.95,0
298,0.15,0.06,0.95,0
299,0.19,0.07,0.97,0
300,0.2,0.06,0.98,0
301,0.2,0.06,0.97,0
302,0.21,0.05,0.98,0
303,0.19,0.05,0.98,0
304,0.2,0.06,0.98,0
305,0.2,0.05,0.98,0
306,0.19,0.06,0.98,0
307,0.2,0.06,0.97,0
308,0.2,0.05,0.97,0
309,0.2,0.05,0.97,0
310,0.19,0.05,0.97,0
311,0.19,0.05,0.97,0
312,0.2,0.05,0.97,0
313,0.19,0.05,0.98,0
314,0.2,0.05,0.98,0
315,0.19,0.05,0.97,0
316,0.2,0.06,0.98,0
317,0.2,0.05,0.98,0
318,0.2,0.05,0.98,0
319,0.2,0.05,0.97,0
320,0.2,0.06,0.97,0
321,0.2,0.06,0.97,0
322,0.2,0.06,0.97,0
323,0.2,0.06,0.98,0
324,0.2,0.06,0.98,0
325,0.19,0.05,0.98,2
326,0.19,0.06,0.98,2
327,0.2,0.06,0.98,2
328,0.2,0.06,0.97,2
329,0.2,0.06,0.98,2
330,0.2,0.05,0.97,2
331,0.2,0.06,0.98,2
332,0.19,0.06,0.98,2
333,0.2,0.06,0.98,2
334,0.2,0.06,0.98,2
335,0.2,0.05,0.97,2
336,0.2,0.06,0.98,2
337,0.19,0.06,0.97,2
338,0.2,0.06,0.98,2
339,0.2,0.06,0.97,2
340,0.2,0.06,0.97,2
341,0.2,0.06,0.98,2
342,0.19,0.06,0.98,2
343,0.21,0.06,0.97,2
344,0.24,0.09,0.96,2
345,0.21,0.15,0.93,2
346,0.2,0.23,0.86,2
347,0.12,0.31,0.85,2
348,0.13,0.38,0.94,2
349,0.16,0.37,1.07,2
350,0.09,0.37,1.23,2
351,0.05,0.37,1.42,2
352,0.2,0.32,1.54,2
353,0.23,0.2,1.66,2
354,0.42,0.03,1.73,2
355,0.59,-0.15,1.67,2
356,0.69,-0.22,1.44,2
357,0.91,-0.27,1.13,2
358,0.92,-0.29,0.74,2
359,0.83,-0.33,0.47,2
360,0.55,-0.34,0.28,2
361,0.35,-0.25,0.18,2
362,0.15,-0.13,0.09,2
363,-0.04,-0.04,0.07,2
364,-0.11,0.04,0.21,2
365,-0.27,0.11,0.35,2
366,-0.27,0.18,0.7,2
367,-0.31,0.2,0.77,2
368,-0.25,0.32,1.01,2
369,-0.21,0.29,0.97,2
370,0.05,0.34,1.33,2
371,-0.11,0.36,1.29,2
372,0.2,0.24,1.47,2
373,0.12,0.18,1.44,2
374,0.32,0.14,1.49,2
375,0.23,0.01,1.28,2
376,0.5,-0.13,1.23,2
377,0.45,-0.11,1.13,2
378,0.49,-0.11,1.1,2
379,0.46,-0.1,1.03,2
380,0.35,-0.04,0.96,2
381,0.38,0.02,0.93,2
382,0.3,0.07,0.89,2
383,0.35,0.11,0.92,2
384,0.29,0.12,0.93,2
385,0.33,0.13,0.96,2
386,0.31,0.13,0.97,2
387,0.3,0.13,0.97,2
388,0.34,0.12,0.96,2
389,0.31,0.12,0.95,2
390,0.3,0.12,0.96,2
391,0.3,0.11,0.95,2
392,0.29,0.11,0.93,2
393,0.34,0.11,0.95,2
394,0.32,0.13,0.96,2
395,0.32,0.11,0.95,2
396,0.35,0.11,0.95,2
397,0.32,0.11,0.95,2
398,0.32,0.1,0.93,2
399,0.32,0.1,0.93,2
400,0.29,0.14,0.95,2
401,0.28,0.09,0.94,2
402,0.24,0.14,0.98,2
403,0.32,0.12,0.96,2
404,0.25,0.11,0.96,2
405,0.27,0.12,0.97,2
406,0.36,0.14,1.03,2
407,0.24,0.08,0.97,2
408,0.32,0.12,0.89,2
409,0.29,0.14,0.89,2
410,0.24,0.11,0.91,2
411,0.25,0.11,0.97,2
412,0.25,0.15,0.98,2
413,0.31,0.1,1.0,2
414,0.33,0.11,0.97,2
415,0.3,0.11,0.96,2
416,0.33,0.11,0.92,2
417,0.34,0.11,0.92,2
418,0.34,0.11,0.94,2
419,0.31,0.11,0.93,2
420,0.34,0.11,0.95,2
421,0.33,0.11,0.96,2
422,0.31,0.11,0.95,2
423,0.33,0.1,0.95,2
424,0.34,0.1,0.95,2
425,0.33,0.1,0.95,0
426,0.32,0.1,0.96,0
427,0.3,0.1,0.95,0
428,0.33,0.1,0.95,0
429,0.34,0.1,0.95,0
430,0.32,0.1,0.94,0
431,0.33,0.1,0.95,0
432,0.34,0.1,0.96,0
433,0.34,0.1,0.96,0
434,0.33,0.1,0.95,0
435,0.33,0.1,0.96,0
436,0.34,0.1,0.96,0
437,0.34,0.1,0.96,0
438,0.33,0.1,0.95,0
439,0.33,0.1,0.95,0
440,0.34,0.1,0.95,0
441,0.31,0.09,0.95,0
442,0.33,0.1,0.95,0
443,0.34,0.1,0.95,0
444,0.33,0.1,0.95,0
445,0.32,0.1,0.95,0
446,0.33,0.09,0.96,0
447,0.33,0.1,0.96,0
448,0.34,0.1,0.95,0
449,0.33,0.09,0.96,0
450,0.31,0.09,0.95,0
451,0.34,0.1,0.95,0
452,0.32,0.1,0.95,0
453,0.34,0.1,0.95,0
454,0.29,0.1,0.95,0
455,0.33,0.09,0.95,0
456,0.34,0.09,0.96,0
457,0.32,0.09,0.96,0
458,0.34,0.1,0.95,0
459,0.33,0.1,0.94,0
460,0.33,0.1,0.95,0
461,0.33,0.1,0.94,0
462,0.33,0.1,0.95,0
463,0.34,0.1,0.95,0
464,0.33,0.1,0.95,0
465,0.34,0.1,0.96,0
466,0.33,0.1,0.95,0
467,0.33,0.09,0.95,0
468,0.32,0.09,0.95,0
469,0.34,0.09,0.94,0
470,0.34,0.1,0.95,0
471,0.34,0.09,0.96,0
472,0.34,0.09,0.95,0
473,0.33,0.09,0.96,0
474,0.33,0.1,0.96,0
475,0.33,0.09,0.95,0
476,0.33,0.09,0.95,0
477,0.33,0.09,0.95,0
478,0.33,0.09,0.95,0
479,0.32,0.09,0.95,0
480,0.33,0.08,0.95,0
481,0.33,0.09,0.96,0
482,0.32,0.09,0.96,0
483,0.33,0.09,0.96,0
484,0.32,0.1,0.95,0
485,0.33,0.09,0.96,0
486,0.33,0.09,0.95,0
487,0.32,0.08,0.95,0
488,0.33,0.09,0.96,0
489,0.33,0.09,0.95,0
490,0.32,0.09,0.95,0
491,0.32,0.09,0.96,0
492,0.33,0.09,0.95,0
493,0.33,0.09,0.95,0
494,0.32,0.09,0.96,0
495,0.32,0.09,0.95,0
496,0.33,0.09,0.95,0
497,0.33,0.09,0.95,0
498,0.32,0.09,0.95,0
499,0.33,0.09,0.96,0
500,0.32,0.09,0.95,0
501,0.34,0.09,0.95,0
502,0.32,0.09,0.95,0
503,0.33,0.09,0.96,0
504,0.33,0.09,0.96,0
505,0.33,0.09,0.96,0
506,0.32,0.09,0.96,0
507,0.32,0.09,0.95,0
508,0.32,0.09,0.95,0
509,0.32,0.09,0.96,0
510,0.32,0.09,0.96,0
511,0.32,0.09,0.95,0
512,0.32,0.09,0.95,0
513,0.32,0.09,0.96,0
514,0.32,0.09,0.96,0
515,0.31,0.09,0.95,0
516,0.33,0.09,0.96,0
517,0.31,0.09,0.95,0
518,0.33,0.09,0.96,0
519,0.32,0.1,0.96,0
520,0.32,0.09,0.96,0
521,0.33,0.09,0.96,0
522,0.32,0.09,0.95,0
523,0.32,0.09,0.95,0
524,0.33,0.09,0.95,0
525,0.33,0.09,0.95,0
526,0.32,0.09,0.96,0
527,0.32,0.09,0.96,0
528,0.32,0.09,0.95,0
529,0.33,0.09,0.96,0
530,0.33,0.09,0.96,0
531,0.32,0.09,0.96,0
532,0.32,0.09,0.95,0
533,0.33,0.09,0.95,0
534,0.33,0.08,0.95,0
535,0.32,0.09,0.95,0
536,0.32,0.09,0.95,0
537,0.33,0.09,0.96,0
538,0.32,0.08,0.96,0
539,0.33,0.08,0.95,0
540,0.32,0.09,0.96,0
541,0.32,0.09,0.95,0
542,0.33,0.09,0.96,0
543,0.32,0.09,0.95,0
544,0.33,0.09,0.95,0
545,0.33,0.08,0.96,0
546,0.32,0.09,0.95,0
547,0.32,0.09,0.95,0
548,0.32,0.08,0.96,0
549,0.31,0.08,0.96,0
550,0.34,0.08,0.96,0
551,0.33,0.09,0.95,0
552,0.33,0.09,0.96,0
553,0.33,0.09,0.95,0
554,0.33,0.09,0.95,0
555,0.33,0.09,0.96,0
556,0.33,0.08,0.95,0
557,0.33,0.09,0.95,0
558,0.33,0.09,0.95,0
559,0.33,0.08,0.95,0
560,0.32,0.09,0.96,0
561,0.32,0.08,0.96,0
562,0.33,0.08,0.96,0
563,0.33,0.08,0.96,0
564,0.32,0.08,0.95,0
565,0.33,0.08,0.95,0
566,0.33,0.08,0.95,0
567,0.33,0.08,0.95,0
568,0.33,0.09,0.95,0
569,0.33,0.08,0.95,0
570,0.32,0.09,0.95,0
571,0.34,0.09,0.96,0
572,0.32,0.08,0.96,0
573,0.33,0.09,0.96,0
574,0.33,0.08,0.96,0
575,0.32,0.08,0.96,0
576,0.34,0.09,0.95,0
577,0.34,0.08,0.95,0
578,0.32,0.09,0.95,0
579,0.33,0.08,0.95,0
580,0.34,0.08,0.96,0
581,0.32,0.08,0.96,0
582,0.33,0.08,0.96,0
583,0.33,0.08,0.96,0
584,0.33,0.09,0.95,0
585,0.34,0.09,0.95,0
586,0.33,0.08,0.95,0
587,0.33,0.08,0.96,0
588,0.34,0.09,0.95,0
589,0.33,0.09,0.96,0
590,0.33,0.08,0.96,0
591,0.33,0.08,0.95,0
592,0.33,0.08,0.96,0
593,0.33,0.08,0.95,0
594,0.33,0.08,0.95,0
595,0.33,0.08,0.96,0
596,0.33,0.08,0.96,0
597,0.33,0.08,0.95,0
598,0.34,0.08,0.95,0
599,0.32,0.08,0.95,0
600,0.33,0.08,0.95,0
601,0.34,0.08,0.96,0
602,0.32,0.07,0.95,0
603,0.31,0.08,0.95,0
604,0.33,0.08,0.97,0
605,0.3,0.07,0.96,0
606,0.3,0.08,0.96,0
607,0.3,0.07,0.95,0
608,0.32,0.09,0.96,0
609,0.3,0.06,0.95,0
610,0.31,0.09,0.96,0
611,0.28,0.08,0.96,0
612,0.3,0.08,0.96,0
613,0.29,0.07,0.96,0
614,0.31,0.08,0.96,0
615,0.3,0.08,0.96,0
616,0.33,0.08,0.96,0
617,0.29,0.07,0.96,0
618,0.3,0.09,0.95,0
619,0.28,0.08,0.96,0
620,0.3,0.09,0.94,0
621,0.27,0.08,0.96,0
622,0.26,0.1,0.95,0
623,0.33,0.09,0.97,0
624,0.28,0.07,0.97,0
625,0.29,0.07,0.98,0
626,0.29,0.07,0.98,0
627,0.27,0.1,0.97,0
628,0.35,0.06,0.97,0
629,0.33,0.09,0.95,0
630,0.27,0.08,0.92,0
631,0.33,0.09,0.94,0
632,0.33,0.08,0.94,0
633,0.34,0.09,0.94,0
634,0.35,0.08,0.95,0
635,0.33,0.09,0.96,0
636,0.35,0.08,0.96,0
637,0.33,0.08,0.96,0
638,0.34,0.09,0.96,0
639,0.35,0.08,0.95,0
640,0.33,0.08,0.94,0
641,0.34,0.07,0.95,0
642,0.34,0.07,0.95,0
643,0.34,0.08,0.95,0
644,0.35,0.08,0.95,0
645,0.33,0.07,0.95,0
646,0.34,0.08,0.95,0
647,0.34,0.07,0.95,0
648,0.34,0.08,0.95,0
649,0.35,0.08,0.96,0
650,0.34,0.07,0.96,2
651,0.34,0.07,0.96,2
652,0.34,0.08,0.95,2
653,0.34,0.07,0.95,2
654,0.35,0.08,0.95,2
655,0.34,0.07,0.95,2
656,0.35,0.08,0.95,2
657,0.34,0.08,0.95,2
658,0.34,0.08,0.95,2
659,0.34,0.07,0.95,2
660,0.33,0.09,0.95,2
661,0.31,0.09,0.95,2
662,0.35,0.07,0.95,2
663,0.34,0.07,0.95,2
664,0.33,0.08,0.95,2
665,0.35,0.07,0.95,2
666,0.34,0.07,0.95,2
667,0.34,0.08,0.94,2
668,0.35,0.1,0.94,2
669,0.33,0.13,0.96,2
670,0.26,0.23,0.85,2
671,0.22,0.29,0.84,2
672,0.1,0.37,0.89,2
673,0.19,0.43,1.04,2
674,0.25,0.42,1.35,2
675,0.02,0.37,1.59,2
676,0.06,0.37,1.81,2
677,0.31,0.22,1.95,2
678,0.46,0.1,1.88,2
679,1.17,0.01,1.54,2
680,1.32,-0.08,1.05,2
681,1.07,-0.18,0.56,2
682,0.78,-0.24,0.24,2
683,0.43,-0.16,0.01,2
684,0.21,-0.15,-0.06,2
685,0.02,-0.08,-0.1,2
686,-0.07,-0.01,0.0,2
687,-0.24,0.02,0.23,2
688,-0.31,0.11,0.55,2
689,-0.25,0.16,0.76,2
690,-0.3,0.3,0.99,2
691,-0.12,0.26,1.09,2
692,-0.11,0.33,1.25,2
693,-0.01,0.24,1.21,2
694,0.18,0.24,1.39,2
695,0.05,0.19,1.45,2
696,0.34,0.12,1.44,2
697,0.35,-0.01,1.27,2
698,0.46,-0.14,1.2,2
699,0.44,-0.16,1.08,2
700,0.56,-0.16,1.07,2
701,0.54,-0.16,1.0,2
702,0.46,-0.1,0.97,2
703,0.46,-0.05,0.93,2
704,0.38,-0.01,0.89,2
705,0.38,0.07,0.91,2
706,0.42,0.09,0.92,2
707,0.36,0.11,0.94,2
708,0.36,0.11,0.95,2
709,0.36,0.11,0.95,2
710,0.37,0.1,0.96,2
711,0.39,0.09,0.94,2
712,0.39,0.09,0.93,2
713,0.4,0.09,0.94,2
714,0.42,0.1,0.94,2
715,0.41,0.09,0.92,2
716,0.39,0.1,0.92,2
717,0.41,0.09,0.91,2
718,0.41,0.1,0.92,2
719,0.42,0.11,0.92,2
720,0.42,0.11,0.91,2
721,0.43,0.1,0.92,2
722,0.4,0.1,0.89,2
723,0.44,0.1,0.9,2
724,0.37,0.11,0.92,2
725,0.37,0.11,0.91,2
726,0.34,0.1,0.94,2
727,0.41,0.11,0.93,2
728,0.37,0.11,0.96,2
729,0.42,0.1,0.94,2
730,0.36,0.1,0.95,2
731,0.36,0.14,0.96,2
732,0.36,0.12,0.96,2
733,0.43,0.09,0.9,2
734,0.35,0.18,0.85,2
735,0.43,0.04,0.91,2
736,0.35,0.09,0.88,2
737,0.32,0.15,0.97,2
738,0.39,0.14,1.0,2
739,0.39,0.12,0.97,2
740,0.45,0.05,0.89,2
741,0.43,0.11,0.87,2
742,0.38,0.11,0.89,2
743,0.41,0.11,0.92,2
744,0.42,0.11,0.87,2
745,0.45,0.11,0.88,2
746,0.43,0.11,0.92,2
747,0.43,0.1,0.92,2
748,0.42,0.1,0.92,2
749,0.45,0.1,0.92,2
750,0.43,0.11,0.91,0
751,0.43,0.11,0.9,0
752,0.44,0.1,0.9,0
753,0.43,0.11,0.91,0
754,0.43,0.1,0.9,0
755,0.45,0.1,0.91,0
756,0.42,0.1,0.89,0
757,0.44,0.1,0.89,0
758,0.44,0.1,0.9,0
759,0.44,0.1,0.91,0
760,0.44,0.1,0.92,0
761,0.43,0.1,0.91,0
762,0.43,0.1,0.9,0
763,0.43,0.1,0.91,0
764,0.43,0.1,0.9,0
765,0.44,0.1,0.9,0
766,0.43,0.1,0.91,0
767,0.43,0.1,0.91,0
768,0.43,0.1,0.91,0
769,0.43,0.1,0.9,0
770,0.43,0.1,0.9,0
771,0.43,0.1,0.9,0
772,0.44,0.1,0.91,0
773,0.43,0.1,0.91,0
774,0.44,0.1,0.91,0
775,0.44,0.1,0.92,0
776,0.43,0.1,0.91,0
777,0.44,0.09,0.91,0
778,0.43,0.1,0.91,0
779,0.44,0.1,0.89,0
780,0.44,0.1,0.9,0
781,0.44,0.1,0.9,0
782,0.44,0.1,0.9,0
783,0.44,0.1,0.91,0
784,0.43,0.1,0.91,0
785,0.44,0.1,0.9,0
786,0.44,0.1,0.91,0
787,0.43,0.1,0.9,0
788,0.44,0.1,0.9,0
789,0.43,0.1,0.91,0
790,0.43,0.1,0.9,0
791,0.44,0.09,0.9,0
792,0.44,0.1,0.91,0
793,0.44,0.1,0.91,0
794,0.43,0.09,0.91,0
795,0.43,0.1,0.9,0
796,0.44,0.1,0.9,0
797,0.43,0.1,0.91,0
798,0.43,0.09,0.91,0
799,0.44,0.1,0.91,0
800,0.43,0.1,0.91,0
801,0.43,0.1,0.9,0
802,0.43,0.09,0.9,0
803,0.44,0.1,0.9,0
804,0.43,0.1,0.91,0
805,0.44,0.1,0.91,0
806,0.44,0.09,0.91,0
807,0.43,0.1,0.91,0
808,0.44,0.1,0.9,0
809,0.43,0.09,0.9,0
810,0.44,0.09,0.9,0
811,0.44,0.1,0.9,0
812,0.43,0.09,0.9,0
813,0.44,0.1,0.91,0
814,0.44,0.09,0.91,0
815,0.44,0.09,0.91,0
816,0.44,0.1,0.9,0
817,0.44,0.09,0.91,0
818,0.44,0.09,0.9,0
819,0.43,0.1,0.9,0
820,0.44,0.09,0.9,0
821,0.44,0.09,0.91,0
822,0.44,0.09,0.91,0
823,0.44,0.09,0.91,0
824,0.44,0.09,0.9,0
825,0.44,0.09,0.9,0
826,0.44,0.09,0.91,0
827,0.43,0.09,0.91,0
828,0.43,0.09,0.9,0
829,0.44,0.09,0.9,0
830,0.43,0.09,0.91,0
831,0.43,0.09,0.91,0
832,0.43,0.09,0.91,0
833,0.44,0.09,0.91,0
834,0.44,0.09,0.91,0
835,0.43,0.09,0.91,0
836,0.43,0.09,0.91,0
837,0.44,0.09,0.91,0
838,0.43,0.08,0.91,0
839,0.43,0.09,0.9,0
840,0.43,0.09,0.91,0
841,0.43,0.09,0.91,0
842,0.43,0.08,0.91,0
843,0.44,0.09,0.91,0
844,0.44,0.08,0.91,0
845,0.43,0.08,0.9,0
846,0.43,0.09,0.91,0
847,0.43,0.09,0.91,0
848,0.44,0.08,0.91,0
849,0.43,0.08,0.91,0
850,0.43,0.09,0.91,0
851,0.44,0.09,0.91,0
852,0.44,0.08,0.9,0
853,0.43,0.09,0.91,0
854,0.43,0.09,0.9,0
855,0.43,0.08,0.9,0
856,0.43,0.08,0.91,0
857,0.44,0.08,0.91,0
858,0.43,0.08,0.91,0
859,0.43,0.08,0.91,0
860,0.43,0.08,0.92,0
861,0.43,0.08,0.91,0
862,0.43,0.08,0.91,0
863,0.42,0.09,0.91,0
864,0.44,0.08,0.91,0
865,0.43,0.09,0.92,0
866,0.43,0.09,0.91,0
867,0.43,0.08,0.92,0
868,0.42,0.09,0.91,0
869,0.42,0.08,0.92,0
870,0.43,0.08,0.92,0
871,0.41,0.08,0.91,0
872,0.42,0.09,0.92,0
873,0.42,0.07,0.92,0
874,0.42,0.09,0.91,0
875,0.39,0.09,0.92,0
876,0.42,0.09,0.92,0
877,0.41,0.08,0.93,0
878,0.42,0.08,0.93,0
879,0.41,0.06,0.91,0
880,0.4,0.1,0.9,0
881,0.43,0.09,0.94,0
882,0.42,0.07,0.91,0
883,0.38,0.09,0.93,0
884,0.4,0.1,0.93,0
885,0.41,0.06,0.93,0
886,0.42,0.07,0.93,0
887,0.39,0.09,0.96,0
888,0.39,0.07,0.96,0
889,0.44,0.07,0.91,0
890,0.38,0.09,0.87,0
891,0.44,0.1,0.91,0
892,0.43,0.09,0.9,0
893,0.44,0.09,0.89,0
894,0.42,0.08,0.9,0
895,0.43,0.08,0.92,0
896,0.43,0.08,0.91,0
897,0.43,0.08,0.92,0
898,0.43,0.08,0.91,0
899,0.44,0.09,0.92,0
900,0.44,0.08,0.91,2
901,0.43,0.08,0.91,2
902,0.43,0.08,0.91,2
903,0.44,0.08,0.92,2
904,0.43,0.08,0.91,2
905,0.43,0.07,0.9,2
906,0.43,0.08,0.91,2
907,0.43,0.08,0.91,2
908,0.43,0.07,0.91,2
909,0.43,0.08,0.92,2
910,0.42,0.07,0.92,2
911,0.43,0.07,0.91,2
912,0.43,0.07,0.91,2
913,0.43,0.07,0.91,2
914,0.43,0.08,0.91,2
915,0.43,0.08,0.91,2
916,0.43,0.08,0.92,2
917,0.42,0.08,0.91,2
918,0.43,0.07,0.9,2
919,0.43,0.08,0.9,2
920,0.44,0.08,0.89,2
921,0.44,0.1,0.89,2
922,0.46,0.09,0.88,2
923,0.38,0.17,0.88,2
924,0.31,0.22,0.92,2
925,0.22,0.28,0.95,2
926,0.2,0.38,1.0,2
927,0.33,0.36,1.23,2
928,0.25,0.24,1.5,2
929,0.23,0.17,1.6,2
930,0.53,0.09,1.66,2
931,0.52,-0.1,1.62,2
932,0.45,-0.21,1.49,2
933,0.62,-0.25,1.34,2
934,0.58,-0.3,0.99,2
935,0.96,-0.34,0.71,2
936,0.79,-0.33,0.35,2
937,0.63,-0.29,0.18,2
938,0.28,-0.14,0.03,2
939,-0.01,-0.01,-0.05,2
940,-0.08,0.1,0.04,2
941,-0.29,0.11,0.2,2
942,-0.29,0.11,0.56,2
943,-0.29,0.18,0.82,2
944,-0.24,0.12,1.0,2
945,0.0,0.25,1.14,2
946,-0.15,0.2,1.28,2
947,0.08,0.23,1.4,2
948,0.1,0.15,1.49,2
949,0.17,0.11,1.35,2
950,0.44,0.01,1.36,2
951,0.28,-0.01,1.2,2
952,0.43,-0.03,1.18,2
953,0.37,-0.06,1.07,2
954,0.49,-0.12,1.06,2
955,0.49,-0.07,1.01,2
956,0.45,-0.01,0.97,2
957,0.45,0.02,0.95,2
958,0.4,0.03,0.9,2
959,0.45,0.04,0.88,2
960,0.46,0.05,0.88,2
961,0.42,0.09,0.89,2
962,0.38,0.11,0.92,2
963,0.37,0.13,0.94,2
964,0.43,0.13,0.95,2
965,0.38,0.14,0.93,2
966,0.42,0.12,0.92,2
967,0.43,0.12,0.92,2
968,0.42,0.13,0.92,2
969,0.43,0.13,0.92,2
970,0.46,0.12,0.93,2
971,0.44,0.14,0.92,2
972,0.45,0.13,0.89,2
973,0.45,0.11,0.87,2
974,0.45,0.11,0.87,2
975,0.44,0.12,0.89,2
976,0.45,0.11,0.88,2
977,0.43,0.12,0.89,2
978,0.41,0.15,0.87,2
979,0.38,0.14,0.9,2
980,0.45,0.11,0.96,2
981,0.41,0.11,0.92,2
982,0.41,0.11,0.94,2
983,0.41,0.11,0.96,2
984,0.45,0.14,0.95,2
985,0.4,0.1,0.89,2
986,0.41,0.14,0.8,2
987,0.43,0.1,0.87,2
988,0.4,0.1,0.9,2
989,0.34,0.13,0.94,2
990,0.43,0.16,0.98,2
991,0.4,0.1,0.96,2
992,0.46,0.1,0.88,2
993,0.44,0.11,0.88,2
994,0.46,0.11,0.88,2
995,0.45,0.12,0.87,2
996,0.45,0.12,0.87,2
997,0.46,0.11,0.87,2
998,0.46,0.12,0.89,2
999,0.46,0.11,0.9,2
1000,0.46,0.11,0.89,0
1001,0.46,0.11,0.89,0
1002,0.46,0.11,0.89,0
1003,0.46,0.11,0.89,0
1004,0.46,0.11,0.87,0
1005,0.46,0.11,0.88,0
1006,0.46,0.11,0.88,0
1007,0.46,0.11,0.88,0
1008,0.46,0.11,0.88,0
1009,0.46,0.11,0.88,0
1010,0.46,0.11,0.89,0
1011,0.46,0.11,0.88,0
1012,0.46,0.11,0.88,0
1013,0.46,0.11,0.88,0
1014,0.46,0.1,0.88,0
1015,0.46,0.11,0.88,0
1016,0.46,0.11,0.89,0
1017,0.46,0.1,0.89,0
1018,0.46,0.11,0.87,0
1019,0.46,0.11,0.88,0
1020,0.46,0.11,0.88,0
1021,0.46,0.1,0.87,0
1022,0.46,0.11,0.88,0
1023,0.46,0.11,0.88,0
1024,0.46,0.11,0.88,0
1025,0.46,0.11,0.89,0
1026,0.46,0.11,0.88,0
1027,0.46,0.11,0.88,0
1028,0.46,0.11,0.88,0
1029,0.46,0.11,0.88,0
1030,0.46,0.11,0.88,0
1031,0.46,0.11,0.88,0
1032,0.46,0.11,0.89,0
1033,0.46,0.11,0.89,0
1034,0.46,0.11,0.88,0
1035,0.46,0.11,0.88,0
1036,0.46,0.11,0.88,0
1037,0.46,0.11,0.88,0
1038,0.46,0.11,0.88,0
1039,0.46,0.11,0.87,0
1040,0.46,0.1,0.88,0
1041,0.46,0.11,0.88,0
1042,0.46,0.1,0.88,0
1043,0.46,0.1,0.88,0
1044,0.46,0.1,0.88,0
1045,0.46,0.11,0.88,0
1046,0.46,0.11,0.88,0
1047,0.46,0.1,0.88,0
1048,0.46,0.1,0.88,0
1049,0.46,0.1,0.88,0
1050,0.46,0.1,0.88,0
1051,0.46,0.1,0.88,0
1052,0.46,0.1,0.88,0
1053,0.46,0.1,0.88,0
1054,0.46,0.1,0.88,0
1055,0.46,0.1,0.88,0
1056,0.46,0.1,0.88,0
1057,0.46,0.1,0.88,0
1058,0.46,0.1,0.88,0
1059,0.46,0.1,0.88,0
1060,0.46,0.1,0.88,0
1061,0.46,0.1,0.87,0
1062,0.46,0.1,0.88,0
1063,0.46,0.1,0.87,0
1064,0.46,0.1,0.88,0
1065,0.46,0.1,0.88,0
1066,0.46,0.1,0.88,0
1067,0.46,0.1,0.88,0
1068,0.46,0.1,0.88,0
1069,0.46,0.1,0.88,0
1070,0.46,0.1,0.88,0
1071,0.46,0.1,0.88,0
1072,0.46,0.1,0.88,0
1073,0.46,0.1,0.88,0
1074,0.46,0.1,0.88,0
1075,0.46,0.1,0.88,0
1076,0.46,0.1,0.89,0
1077,0.46,0.1,0.89,0
1078,0.46,0.1,0.88,0
1079,0.46,0.1,0.88,0
1080,0.46,0.1,0.88,0
1081,0.46,0.1,0.87,0
1082,0.46,0.1,0.88,0
1083,0.46,0.1,0.89,0
1084,0.46,0.1,0.88,0
1085,0.46,0.1,0.88,0
1086,0.46,0.1,0.88,0
1087,0.46,0.1,0.88,0
1088,0.46,0.1,0.88,0
1089,0.46,0.1,0.89,0
1090,0.46,0.1,0.89,0
1091,0.46,0.1,0.88,0
1092,0.46,0.1,0.88,0
1093,0.46,0.1,0.88,0
1094,0.46,0.1,0.88,0
1095,0.46,0.09,0.88,0
1096,0.46,0.1,0.88,0
1097,0.46,0.1,0.88,0
1098,0.46,0.1,0.88,0
1099,0.46,0.1,0.87,0
1100,0.46,0.1,0.88,0
1101,0.46,0.1,0.89,0
1102,0.46,0.09,0.88,0
1103,0.46,0.1,0.88,0
1104,0.46,0.1,0.88,0
1105,0.46,0.1,0.88,0
1106,0.46,0.09,0.87,0
1107,0.46,0.1,0.88,0
1108,0.46,0.09,0.88,0
1109,0.46,0.09,0.88,0
1110,0.46,0.09,0.89,0
1111,0.46,0.09,0.89,0
1112,0.46,0.09,0.89,0
1113,0.46,0.09,0.88,0
1114,0.46,0.1,0.89,0
1115,0.46,0.09,0.88,0
1116,0.46,0.09,0.87,0
1117,0.46,0.09,0.89,0
1118,0.46,0.09,0.89,0
1119,0.46,0.09,0.88,0
1120,0.46,0.09,0.89,0
1121,0.46,0.09,0.89,0
1122,0.46,0.09,0.88,0
1123,0.46,0.09,0.89,0
1124,0.46,0.09,0.89,0
1125,0.46,0.09,0.89,0
1126,0.46,0.08,0.88,0
1127,0.46,0.09,0.89,0
1128,0.46,0.09,0.89,0
1129,0.46,0.08,0.88,0
1130,0.46,0.09,0.88,0
1131,0.46,0.08,0.89,0
1132,0.46,0.08,0.89,0
1133,0.46,0.08,0.88,0
1134,0.46,0.08,0.88,0
1135,0.46,0.08,0.87,0
1136,0.47,0.07,0.88,0
1137,0.44,0.13,0.9,0
1138,0.52,0.06,0.91,0
1139,0.41,0.09,0.89,0
1140,0.48,0.1,0.89,0
1141,0.46,0.11,0.87,0
1142,0.47,0.11,0.88,0
1143,0.46,0.1,0.88,0
1144,0.46,0.07,0.88,0
1145,0.46,0.04,0.86,0
1146,0.49,0.05,0.87,0
1147,0.47,0.06,0.87,0
1148,0.49,0.07,0.9,0
1149,0.47,0.09,0.89,0
1150,0.46,0.09,0.88,0
1151,0.47,0.1,0.88,0
1152,0.47,0.09,0.87,0
1153,0.47,0.08,0.87,0
1154,0.47,0.07,0.87,0
1155,0.46,0.07,0.88,0
1156,0.47,0.06,0.87,0
1157,0.46,0.06,0.87,0
1158,0.46,0.05,0.87,0
1159,0.46,0.06,0.88,0
1160,0.47,0.05,0.88,0
1161,0.48,0.06,0.88,0
1162,0.47,0.07,0.88,0
1163,0.47,0.08,0.88,0
1164,0.47,0.09,0.88,0
1165,0.47,0.09,0.87,0
1166,0.47,0.1,0.87,0
1167,0.47,0.1,0.88,0
1168,0.46,0.11,0.89,0
1169,0.46,0.11,0.9,0
1170,0.46,0.1,0.89,0
1171,0.46,0.1,0.85,0
1172,0.42,0.11,0.8,0
1173,0.51,0.09,0.89,0
1174,0.49,0.05,0.93,0
1175,0.46,0.05,0.88,0
1176,0.46,0.09,0.87,0
1177,0.47,0.09,0.88,0
1178,0.47,0.1,0.89,0
1179,0.48,0.09,0.88,0
1180,0.46,0.09,0.88,0
1181,0.46,0.08,0.87,0
1182,0.46,0.06,0.88,0
1183,0.46,0.07,0.87,0
1184,0.44,0.1,0.88,0
1185,0.44,0.07,0.89,0
1186,0.47,0.08,0.91,0
1187,0.42,0.08,0.9,0
1188,0.45,0.08,0.93,0
1189,0.42,0.06,0.94,0
1190,0.39,0.08,0.93,0
1191,0.42,0.08,0.93,0
1192,0.4,0.08,0.91,0
1193,0.39,0.11,0.94,0
1194,0.45,0.09,0.97,0
1195,0.35,0.05,0.96,0
1196,0.45,0.1,0.88,0
1197,0.41,0.06,0.87,0
1198,0.45,0.09,0.86,0
1199,0.43,0.08,0.86,0
1200,0.45,0.08,0.86,0
1201,0.46,0.09,0.87,0
1202,0.46,0.08,0.9,0
1203,0.46,0.08,0.9,0
1204,0.46,0.09,0.91,0
1205,0.46,0.08,0.9,0
1206,0.47,0.09,0.89,0
1207,0.46,0.1,0.88,0
1208,0.46,0.08,0.88,0
1209,0.46,0.08,0.88,0
1210,0.46,0.09,0.87,0
1211,0.47,0.09,0.89,0
1212,0.46,0.08,0.89,0
1213,0.46,0.08,0.89,0
1214,0.46,0.09,0.88,0
1215,0.46,0.08,0.89,0
1216,0.46,0.09,0.88,0
1217,0.46,0.08,0.89,0
1218,0.46,0.08,0.88,0
1219,0.46,0.08,0.88,0
1220,0.46,0.08,0.88,0
1221,0.46,0.08,0.88,0
1222,0.46,0.08,0.89,0
1223,0.46,0.09,0.89,0
1224,0.46,0.08,0.88,0
1225,0.46,0.09,0.89,2
1226,0.46,0.08,0.89,2
1227,0.46,0.08,0.89,2
1228,0.46,0.08,0.88,2
1229,0.46,0.08,0.89,2
1230,0.46,0.08,0.88,2
1231,0.46,0.08,0.89,2
1232,0.46,0.08,0.89,2
1233,0.46,0.08,0.88,2
1234,0.46,0.08,0.89,2
1235,0.46,0.08,0.89,2
1236,0.46,0.08,0.89,2
1237,0.46,0.08,0.88,2
1238,0.46,0.08,0.89,2
1239,0.46,0.08,0.88,2
1240,0.46,0.08,0.88,2
1241,0.46,0.08,0.89,2
1242,0.46,0.07,0.89,2
1243,0.46,0.07,0.88,2
1244,0.46,0.08,0.87,2
1245,0.48,0.07,0.86,2
1246,0.43,0.19,0.85,2
1247,0.37,0.25,0.82,2
1248,0.24,0.36,0.85,2
1249,0.16,0.4,0.94,2
1250,0.25,0.46,1.18,2
1251,0.36,0.42,1.54,2
1252,0.23,0.38,1.8,2
1253,0.58,0.3,1.93,2
1254,0.77,0.13,1.8,2
1255,1.14,0.01,1.43,2
1256,1.24,-0.18,1.04,2
1257,1.03,-0.25,0.56,2
1258,0.96,-0.3,0.28,2
1259,0.69,-0.24,0.08,2
1260,0.44,-0.24,-0.04,2
1261,0.29,-0.13,-0.1,2
1262,0.0,-0.05,-0.12,2
1263,0.0,0.03,0.09,2
1264,-0.26,0.11,0.26,2
1265,-0.14,0.22,0.65,2
1266,-0.21,0.37,0.92,2
1267,-0.15,0.37,1.0,2
1268,-0.02,0.46,1.0,2
1269,0.21,0.42,1.27,2
1270,0.24,0.46,1.26,2
1271,0.33,0.36,1.52,2
1272,0.29,0.37,1.47,2
1273,0.76,0.13,1.47,2
1274,0.39,-0.02,1.22,2
1275,0.78,-0.11,1.17,2
1276,0.55,-0.18,1.01,2
1277,0.62,-0.15,0.99,2
1278,0.54,-0.12,0.92,2
1279,0.46,-0.03,0.91,2
1280,0.46,0.02,0.9,2
1281,0.4,0.1,0.89,2
1282,0.41,0.13,0.9,2
1283,0.42,0.16,0.9,2
1284,0.4,0.17,0.91,2
1285,0.41,0.13,0.92,2
1286,0.41,0.13,0.93,2
1287,0.45,0.11,0.93,2
1288,0.42,0.13,0.9,2
1289,0.45,0.16,0.91,2
1290,0.46,0.13,0.88,2
1291,0.46,0.14,0.88,2
1292,0.46,0.13,0.88,2
1293,0.45,0.16,0.88,2
1294,0.46,0.14,0.88,2
1295,0.46,0.16,0.9,2
1296,0.46,0.14,0.87,2
1297,0.45,0.17,0.88,2
1298,0.46,0.09,0.87,2
1299,0.39,0.17,0.88,2
1300,0.45,0.15,0.92,2
1301,0.37,0.15,0.9,2
1302,0.46,0.14,0.9,2
1303,0.4,0.16,0.94,2
1304,0.41,0.16,0.95,2
1305,0.42,0.17,0.95,2
1306,0.43,0.12,0.88,2
1307,0.43,0.17,0.78,2
1308,0.45,0.16,0.87,2
1309,0.45,0.11,0.9,2
1310,0.42,0.19,0.92,2
1311,0.43,0.13,0.95,2
1312,0.41,0.16,0.95,2
1313,0.46,0.12,0.93,2
1314,0.44,0.16,0.89,2
1315,0.45,0.16,0.88,2
1316,0.46,0.16,0.87,2
1317,0.46,0.15,0.85,2
1318,0.46,0.15,0.85,2
1319,0.46,0.13,0.87,2
1320,0.46,0.13,0.88,2
1321,0.46,0.13,0.88,2
1322,0.46,0.13,0.87,2
1323,0.46,0.13,0.87,2
1324,0.46,0.14,0.86,2
1325,0.47,0.13,0.86,0
1326,0.46,0.12,0.87,0
1327,0.46,0.12,0.87,0
1328,0.48,0.12,0.87,0
1329,0.46,0.13,0.88,0
1330,0.48,0.12,0.88,0
1331,0.47,0.12,0.87,0
1332,0.47,0.12,0.87,0
1333,0.47,0.12,0.86,0
1334,0.46,0.11,0.86,0
1335,0.47,0.12,0.86,0
1336,0.48,0.11,0.86,0
1337,0.47,0.12,0.87,0
1338,0.47,0.11,0.87,0
1339,0.47,0.11,0.87,0
1340,0.48,0.11,0.87,0
1341,0.47,0.11,0.87,0
1342,0.47,0.12,0.87,0
1343,0.48,0.12,0.87,0
1344,0.48,0.12,0.87,0
1345,0.47,0.11,0.86,0
1346,0.47,0.11,0.87,0
1347,0.48,0.11,0.87,0
1348,0.47,0.11,0.86,0
1349,0.48,0.11,0.87,0
1350,0.49,0.11,0.87,0
1351,0.47,0.11,0.88,0
1352,0.47,0.11,0.87,0
1353,0.47,0.11,0.86,0
1354,0.47,0.11,0.87,0
1355,0.48,0.11,0.86,0
1356,0.47,0.11,0.87,0
1357,0.47,0.11,0.86,0
1358,0.47,0.11,0.87,0
1359,0.47,0.11,0.87,0
1360,0.47,0.11,0.87,0
1361,0.47,0.11,0.86,0
1362,0.47,0.11,0.87,0
1363,0.47,0.1,0.86,0
1364,0.47,0.11,0.87,0
1365,0.47,0.11,0.87,0
1366,0.47,0.11,0.87,0
1367,0.47,0.11,0.86,0
1368,0.47,0.11,0.86,0
1369,0.47,0.11,0.87,0
1370,0.47,0.11,0.87,0
1371,0.47,0.11,0.87,0
1372,0.47,0.11,0.87,0
1373,0.47,0.11,0.87,0
1374,0.47,0.11,0.87,0
1375,0.47,0.11,0.87,0
1376,0.47,0.11,0.86,0
1377,0.48,0.11,0.87,0
1378,0.47,0.11,0.87,0
1379,0.48,0.11,0.87,0
1380,0.47,0.11,0.86,0
1381,0.48,0.11,0.86,0
1382,0.47,0.11,0.87,0
1383,0.47,0.11,0.87,0
1384,0.47,0.11,0.86,0
1385,0.47,0.11,0.87,0
1386,0.47,0.11,0.87,0
1387,0.47,0.11,0.86,0
1388,0.47,0.11,0.87,0
1389,0.47,0.11,0.87,0
1390,0.47,0.11,0.87,0
1391,0.47,0.11,0.87,0
1392,0.47,0.11,0.87,0
1393,0.47,0.11,0.87,0
1394,0.47,0.11,0.87,0
1395,0.47,0.11,0.87,0
1396,0.47,0.11,0.87,0
1397,0.47,0.11,0.87,0
1398,0.47,0.11,0.87,0
1399,0.47,0.11,0.87,0
1400,0.47,0.11,0.87,0
1401,0.47,0.1,0.87,0
1402,0.47,0.11,0.86,0
1403,0.47,0.11,0.87,0
1404,0.47,0.11,0.87,0
1405,0.47,0.11,0.87,0
1406,0.47,0.11,0.87,0
1407,0.47,0.11,0.87,0
1408,0.47,0.11,0.87,0
1409,0.47,0.1,0.87,0
1410,0.47,0.11,0.86,0
1411,0.47,0.11,0.86,0
1412,0.47,0.11,0.87,0
1413,0.47,0.11,0.87,0
1414,0.48,0.11,0.87,0
1415,0.47,0.11,0.87,0
1416,0.47,0.11,0.87,0
1417,0.47,0.11,0.87,0
1418,0.47,0.11,0.87,0
1419,0.47,0.11,0.86,0
1420,0.48,0.11,0.87,0
1421,0.47,0.11,0.87,0
1422,0.47,0.11,0.87,0
1423,0.48,0.11,0.87,0
1424,0.47,0.11,0.87,0
1425,0.47,0.11,0.87,0
1426,0.47,0.11,0.87,0
1427,0.47,0.11,0.87,0
1428,0.48,0.11,0.87,0
1429,0.47,0.11,0.86,0
1430,0.47,0.1,0.87,0
1431,0.47,0.11,0.87,0
1432,0.47,0.1,0.87,0
1433,0.47,0.1,0.87,0
1434,0.47,0.11,0.87,0
1435,0.47,0.11,0.87,0
1436,0.47,0.11,0.87,0
1437,0.47,0.11,0.87,0
1438,0.47,0.11,0.87,0
1439,0.47,0.1,0.87,0
1440,0.47,0.11,0.87,0
1441,0.47,0.11,0.87,0
1442,0.47,0.11,0.87,0
1443,0.47,0.11,0.87,0
1444,0.47,0.11,0.87,0
1445,0.47,0.11,0.87,0
1446,0.47,0.11,0.87,0
1447,0.47,0.11,0.87,0
1448,0.47,0.1,0.87,0
1449,0.47,0.1,0.87,0
1450,0.47,0.11,0.87,0
1451,0.47,0.11,0.87,0
1452,0.47,0.11,0.87,0
1453,0.47,0.11,0.87,0
1454,0.47,0.1,0.87,0
1455,0.47,0.1,0.87,0
1456,0.47,0.11,0.88,0
1457,0.47,0.11,0.87,0
1458,0.47,0.1,0.87,0
1459,0.47,0.11,0.87,0
1460,0.47,0.11,0.86,0
1461,0.47,0.11,0.87,0
1462,0.47,0.11,0.87,0
1463,0.47,0.11,0.87,0
1464,0.47,0.11,0.87,0
1465,0.47,0.11,0.87,0
1466,0.47,0.11,0.87,0
1467,0.47,0.11,0.87,0
1468,0.47,0.11,0.87,0
1469,0.47,0.11,0.87,0
1470,0.47,0.1,0.87,0
1471,0.47,0.1,0.87,0
1472,0.47,0.11,0.87,0
1473,0.46,0.1,0.87,0
1474,0.46,0.1,0.87,0
1475,0.47,0.1,0.87,0
1476,0.46,0.11,0.87,0
1477,0.47,0.11,0.87,0
1478,0.46,0.11,0.88,0
1479,0.46,0.11,0.89,0
1480,0.46,0.11,0.89,0
1481,0.46,0.1,0.89,0
1482,0.45,0.12,0.9,0
1483,0.45,0.09,0.91,0
1484,0.43,0.11,0.89,0
1485,0.44,0.1,0.87,0
1486,0.46,0.1,0.91,0
1487,0.42,0.09,0.91,0
1488,0.45,0.09,0.89,0
1489,0.43,0.11,0.9,0
1490,0.43,0.11,0.92,0
1491,0.43,0.11,0.93,0
1492,0.42,0.07,0.92,0
1493,0.46,0.1,0.87,0
1494,0.43,0.11,0.85,0
1495,0.46,0.11,0.88,0
1496,0.46,0.1,0.87,0
1497,0.46,0.1,0.87,0
1498,0.46,0.11,0.88,0
1499,0.48,0.1,0.88,0
1500,0.46,0.11,0.88,2
1501,0.47,0.11,0.88,2
1502,0.47,0.1,0.88,2
1503,0.46,0.1,0.87,2
1504,0.47,0.1,0.87,2
1505,0.46,0.1,0.87,2
1506,0.46,0.1,0.88,2
1507,0.47,0.1,0.87,2
1508,0.47,0.1,0.88,2
1509,0.47,0.1,0.87,2
1510,0.47,0.1,0.87,2
1511,0.47,0.1,0.87,2
1512,0.46,0.1,0.88,2
1513,0.47,0.1,0.87,2
1514,0.46,0.1,0.87,2
1515,0.46,0.1,0.87,2
1516,0.47,0.1,0.87,2
1517,0.47,0.1,0.87,2
1518,0.46,0.1,0.87,2
1519,0.47,0.1,0.87,2
1520,0.47,0.1,0.87,2
1521,0.47,0.11,0.87,2
1522,0.51,0.1,0.85,2
1523,0.48,0.11,0.81,2
1524,0.46,0.15,0.79,2
1525,0.37,0.24,0.81,2
1526,0.25,0.35,0.91,2
1527,0.32,0.42,1.03,2
1528,0.46,0.44,1.34,2
1529,0.35,0.38,1.62,2
1530,0.55,0.34,1.86,2
1531,0.75,0.24,1.79,2
1532,1.15,0.08,1.55,2
1533,1.19,-0.05,1.16,2
1534,1.07,-0.13,0.82,2
1535,0.92,-0.16,0.49,2
1536,0.69,-0.17,0.22,2
1537,0.52,-0.23,0.03,2
1538,0.25,-0.15,-0.05,2
1539,0.08,-0.02,-0.1,2
1540,-0.03,0.0,0.03,2
1541,-0.25,0.12,0.29,2
1542,-0.13,0.15,0.57,2
1543,-0.18,0.27,0.89,2
1544,-0.08,0.27,0.98,2
1545,0.1,0.36,1.09,2
1546,0.33,0.31,1.33,2
1547,0.29,0.33,1.27,2
1548,0.51,0.22,1.45,2
1549,0.46,0.19,1.37,2
1550,0.66,0.06,1.36,2
1551,0.59,0.0,1.17,2
1552,0.62,-0.08,1.04,2
1553,0.72,-0.13,1.01,2
1554,0.57,-0.09,0.92,2
1555,0.68,-0.1,0.91,2
1556,0.56,-0.04,0.86,2
1557,0.48,-0.01,0.83,2
1558,0.54,0.01,0.82,2
1559,0.46,0.05,0.84,2
1560,0.47,0.1,0.84,2
1561,0.47,0.11,0.87,2
1562,0.46,0.11,0.86,2
1563,0.49,0.12,0.88,2
1564,0.5,0.11,0.88,2
1565,0.52,0.1,0.88,2
1566,0.51,0.1,0.88,2
1567,0.52,0.1,0.87,2
1568,0.51,0.11,0.85,2
1569,0.53,0.1,0.85,2
1570,0.52,0.1,0.85,2
1571,0.53,0.1,0.85,2
1572,0.53,0.1,0.86,2
1573,0.53,0.11,0.85,2
1574,0.53,0.11,0.84,2
1575,0.54,0.11,0.84,2
1576,0.54,0.11,0.83,2
1577,0.53,0.1,0.84,2
1578,0.53,0.11,0.84,2
1579,0.56,0.1,0.84,2
1580,0.51,0.09,0.83,2
1581,0.52,0.11,0.81,2
1582,0.47,0.11,0.87,2
1583,0.5,0.11,0.87,2
1584,0.52,0.11,0.86,2
1585,0.46,0.14,0.9,2
1586,0.48,0.13,0.93,2
1587,0.58,0.05,0.91,2
1588,0.49,0.1,0.79,2
1589,0.5,0.11,0.78,2
1590,0.46,0.15,0.87,2
1591,0.54,0.08,0.84,2
1592,0.42,0.16,0.91,2
1593,0.47,0.12,0.96,2
1594,0.42,0.13,0.96,2
1595,0.54,0.11,0.85,2
1596,0.48,0.13,0.79,2
1597,0.52,0.11,0.81,2
1598,0.49,0.11,0.84,2
1599,0.52,0.12,0.83,2
1600,0.54,0.12,0.84,0
1601,0.52,0.11,0.86,0
1602,0.55,0.11,0.85,0
1603,0.54,0.11,0.85,0
1604,0.53,0.11,0.85,0
1605,0.53,0.11,0.84,0
1606,0.53,0.11,0.84,0
1607,0.53,0.11,0.83,0
1608,0.53,0.1,0.82,0
1609,0.56,0.11,0.83,0
1610,0.54,0.11,0.83,0
1611,0.54,0.11,0.84,0
1612,0.55,0.1,0.83,0
1613,0.54,0.1,0.85,0
1614,0.54,0.11,0.84,0
1615,0.54,0.11,0.82,0
1616,0.55,0.1,0.83,0
1617,0.55,0.11,0.83,0
1618,0.55,0.1,0.82,0
1619,0.56,0.1,0.83,0
1620,0.54,0.11,0.83,0
1621,0.56,0.1,0.83,0
1622,0.55,0.11,0.84,0
1623,0.55,0.11,0.84,0
1624,0.55,0.1,0.83,0
1625,0.54,0.1,0.83,0
1626,0.62,0.1,0.83,0
1627,0.56,0.11,0.83,0
1628,0.55,0.1,0.83,0
1629,0.56,0.1,0.82,0
1630,0.56,0.11,0.82,0
1631,0.56,0.1,0.82,0
1632,0.56,0.1,0.82,0
1633,0.57,0.1,0.82,0
1634,0.56,0.1,0.82,0
1635,0.55,0.11,0.81,0
1636,0.55,0.1,0.82,0
1637,0.57,0.1,0.83,0
1638,0.56,0.1,0.83,0
1639,0.56,0.1,0.84,0
1640,0.55,0.1,0.83,0
1641,0.56,0.1,0.82,0
1642,0.56,0.1,0.82,0
1643,0.56,0.1,0.82,0
1644,0.56,0.1,0.81,0
1645,0.55,0.1,0.83,0
1646,0.56,0.1,0.83,0
1647,0.57,0.1,0.83,0
1648,0.56,0.1,0.83,0
1649,0.56,0.1,0.83,0
1650,0.55,0.1,0.83,0
1651,0.55,0.1,0.83,0
1652,0.56,0.09,0.85,0
1653,0.56,0.09,0.85,0
1654,0.56,0.09,0.83,0
1655,0.56,0.09,0.84,0
1656,0.55,0.1,0.82,0
1657,0.56,0.1,0.8,0
1658,0.55,0.1,0.79,0
1659,0.55,0.1,0.8,0
1660,0.55,0.1,0.83,0
1661,0.56,0.1,0.85,0
1662,0.56,0.09,0.85,0
1663,0.57,0.09,0.85,0
1664,0.56,0.1,0.85,0
1665,0.56,0.09,0.83,0
1666,0.55,0.09,0.82,0
1667,0.56,0.09,0.82,0
1668,0.56,0.09,0.82,0
1669,0.55,0.09,0.82,0
1670,0.56,0.1,0.84,0
1671,0.56,0.1,0.84,0
1672,0.56,0.09,0.83,0
1673,0.56,0.09,0.83,0
1674,0.56,0.1,0.84,0
1675,0.56,0.1,0.83,0
1676,0.56,0.09,0.82,0
1677,0.57,0.09,0.83,0
1678,0.56,0.1,0.84,0
1679,0.55,0.09,0.83,0
1680,0.55,0.09,0.83,0
1681,0.56,0.1,0.82,0
1682,0.54,0.1,0.84,0
1683,0.55,0.09,0.84,0
1684,0.55,0.09,0.83,0
1685,0.54,0.1,0.84,0
1686,0.54,0.09,0.85,0
1687,0.53,0.09,0.84,0
1688,0.54,0.09,0.85,0
1689,0.54,0.09,0.85,0
1690,0.54,0.08,0.85,0
1691,0.55,0.09,0.84,0
1692,0.53,0.09,0.83,0
1693,0.54,0.1,0.83,0
1694,0.55,0.1,0.83,0
1695,0.53,0.09,0.84,0
1696,0.54,0.09,0.83,0
1697,0.54,0.09,0.84,0
1698,0.54,0.09,0.85,0
1699,0.55,0.08,0.84,0
1700,0.53,0.09,0.85,0
1701,0.53,0.09,0.85,0
1702,0.53,0.08,0.85,0
1703,0.52,0.1,0.84,0
1704,0.57,0.08,0.86,0
1705,0.48,0.1,0.87,0
1706,0.51,0.08,0.85,0
1707,0.47,0.11,0.84,0
1708,0.55,0.09,0.88,0
1709,0.49,0.07,0.87,0
1710,0.48,0.1,0.87,0
1711,0.47,0.1,0.9,0
1712,0.5,0.07,0.88,0
1713,0.55,0.1,0.81,0
1714,0.52,0.11,0.81,0
1715,0.54,0.1,0.83,0
1716,0.55,0.09,0.83,0
1717,0.54,0.09,0.81,0
1718,0.56,0.09,0.84,0
1719,0.56,0.08,0.85,0
1720,0.56,0.09,0.85,0
1721,0.56,0.09,0.85,0
1722,0.56,0.09,0.84,0
1723,0.55,0.09,0.83,0
1724,0.55,0.09,0.82,0
1725,0.56,0.08,0.84,2
1726,0.55,0.09,0.84,2
1727,0.56,0.07,0.84,2
1728,0.56,0.08,0.83,2
1729,0.55,0.08,0.83,2
1730,0.55,0.08,0.84,2
1731,0.56,0.09,0.83,2
1732,0.55,0.09,0.84,2
1733,0.56,0.08,0.85,2
1734,0.54,0.08,0.84,2
1735,0.55,0.09,0.83,2
1736,0.57,0.08,0.84,2
1737,0.55,0.09,0.83,2
1738,0.56,0.09,0.84,2
1739,0.55,0.09,0.84,2
1740,0.53,0.09,0.8,2
1741,0.56,0.1,0.79,2
1742,0.59,0.12,0.8,2
1743,0.47,0.28,0.78,2
1744,0.37,0.36,0.78,2
1745,0.23,0.38,0.91,2
1746,0.3,0.45,1.16,2
1747,0.57,0.36,1.6,2
1748,0.56,0.32,1.82,2
1749,0.91,0.22,1.76,2
1750,1.07,0.07,1.48,2
1751,1.09,-0.08,1.09,2
1752,1.08,-0.15,0.76,2
1753,0.93,-0.22,0.51,2
1754,0.68,-0.3,0.36,2
1755,0.47,-0.25,0.22,2
1756,0.35,-0.23,0.12,2
1757,0.17,-0.12,0.0,2
1758,-0.02,0.0,0.02,2
1759,-0.09,0.07,0.15,2
1760,-0.14,0.21,0.48,2
1761,-0.04,0.34,0.88,2
1762,-0.03,0.36,0.99,2
1763,0.07,0.37,1.03,2
1764,0.28,0.37,1.31,2
1765,0.31,0.39,1.31,2
1766,0.42,0.3,1.49,2
1767,0.37,0.28,1.43,2
1768,0.59,0.13,1.39,2
1769,0.51,0.08,1.21,2
1770,0.59,-0.01,1.08,2
1771,0.62,-0.1,1.02,2
1772,0.46,-0.08,0.92,2
1773,0.64,-0.06,0.9,2
1774,0.55,-0.05,0.84,2
1775,0.54,-0.04,0.81,2
1776,0.47,-0.02,0.79,2
1777,0.43,0.02,0.84,2
1778,0.44,0.09,0.86,2
1779,0.44,0.1,0.9,2
1780,0.44,0.11,0.91,2
1781,0.45,0.11,0.92,2
1782,0.46,0.11,0.94,2
1783,0.46,0.11,0.92,2
1784,0.46,0.11,0.91,2
1785,0.46,0.12,0.89,2
1786,0.46,0.12,0.88,2
1787,0.46,0.11,0.89,2
1788,0.47,0.11,0.89,2
1789,0.46,0.1,0.88,2
1790,0.47,0.11,0.88,2
1791,0.47,0.11,0.86,2
1792,0.46,0.11,0.86,2
1793,0.48,0.1,0.84,2
1794,0.39,0.12,0.87,2
1795,0.46,0.11,0.88,2
1796,0.45,0.14,0.94,2
1797,0.49,0.13,0.95,2
1798,0.46,0.11,0.94,2
1799,0.47,0.1,0.91,2
1800,0.44,0.1,0.85,2
1801,0.51,0.1,0.79,2
1802,0.46,0.15,0.87,2
1803,0.44,0.11,0.87,2
1804,0.45,0.11,0.88,2
1805,0.45,0.11,0.91,2
1806,0.48,0.11,0.91,2
1807,0.52,0.11,0.86,2
1808,0.5,0.11,0.83,2
1809,0.5,0.11,0.85,2
1810,0.51,0.11,0.86,2
1811,0.52,0.1,0.86,2
1812,0.53,0.1,0.86,2
1813,0.52,0.1,0.85,2
1814,0.52,0.1,0.84,2
1815,0.54,0.1,0.84,2
1816,0.52,0.1,0.85,2
1817,0.53,0.1,0.86,2
1818,0.53,0.1,0.86,2
1819,0.53,0.1,0.85,2
1820,0.53,0.09,0.85,2
1821,0.52,0.1,0.84,2
1822,0.53,0.1,0.84,2
1823,0.54,0.09,0.85,2
1824,0.52,0.09,0.85,2
1825,0.52,0.09,0.85,0
1826,0.52,0.09,0.85,0
1827,0.52,0.09,0.85,0
1828,0.52,0.09,0.85,0
1829,0.53,0.09,0.85,0
1830,0.52,0.09,0.85,0
1831,0.52,0.09,0.85,0
1832,0.53,0.09,0.84,0
1833,0.54,0.09,0.84,0
1834,0.52,0.09,0.85,0
1835,0.52,0.09,0.85,0
1836,0.53,0.09,0.85,0
1837,0.53,0.09,0.85,0
1838,0.53,0.09,0.85,0
1839,0.53,0.09,0.85,0
1840,0.53,0.1,0.85,0
1841,0.53,0.09,0.85,0
1842,0.53,0.1,0.85,0
1843,0.53,0.09,0.85,0
1844,0.53,0.1,0.85,0
1845,0.53,0.09,0.85,0
1846,0.52,0.08,0.85,0
1847,0.52,0.09,0.85,0
1848,0.53,0.08,0.85,0
1849,0.52,0.09,0.84,0
1850,0.53,0.09,0.85,0
1851,0.55,0.1,0.85,0
1852,0.52,0.09,0.84,0
1853,0.55,0.03,0.85,0
1854,0.54,0.11,0.84,0
1855,0.54,0.08,0.85,0
1856,0.53,0.09,0.85,0
1857,0.53,0.1,0.84,0
1858,0.53,0.1,0.84,0
1859,0.53,0.09,0.84,0
1860,0.53,0.09,0.85,0
1861,0.53,0.09,0.85,0
1862,0.54,0.09,0.85,0
1863,0.54,0.09,0.85,0
1864,0.53,0.09,0.84,0
1865,0.53,0.09,0.84,0
1866,0.54,0.09,0.85,0
1867,0.53,0.1,0.84,0
1868,0.54,0.09,0.85,0
1869,0.54,0.09,0.85,0
1870,0.53,0.1,0.84,0
1871,0.53,0.1,0.85,0
1872,0.54,0.09,0.84,0
1873,0.54,0.09,0.84,0
1874,0.53,0.1,0.84,0
1875,0.53,0.09,0.84,0
1876,0.53,0.1,0.85,0
1877,0.53,0.1,0.84,0
1878,0.53,0.09,0.84,0
1879,0.53,0.1,0.84,0
1880,0.53,0.1,0.85,0
1881,0.52,0.1,0.85,0
1882,0.53,0.09,0.85,0
1883,0.53,0.1,0.85,0
1884,0.53,0.1,0.85,0
1885,0.53,0.09,0.85,0
1886,0.53,0.09,0.85,0
1887,0.53,0.09,0.85,0
1888,0.53,0.09,0.84,0
1889,0.52,0.09,0.84,0
1890,0.54,0.1,0.85,0
1891,0.53,0.1,0.84,0
1892,0.52,0.09,0.85,0
1893,0.53,0.1,0.84,0
1894,0.53,0.09,0.84,0
1895,0.54,0.1,0.84,0
1896,0.54,0.09,0.85,0
1897,0.53,0.1,0.84,0
1898,0.53,0.09,0.84,0
1899,0.57,0.11,0.84,0
1900,0.53,0.08,0.84,0
1901,0.54,0.1,0.84,0
1902,0.53,0.1,0.84,0
1903,0.55,0.1,0.83,0
1904,0.54,0.1,0.84,0
1905,0.54,0.1,0.84,0
1906,0.54,0.09,0.84,0
1907,0.54,0.09,0.84,0
1908,0.55,0.1,0.84,0
1909,0.54,0.1,0.84,0
1910,0.54,0.09,0.84,0
1911,0.55,0.09,0.83,0
1912,0.55,0.1,0.84,0
1913,0.54,0.09,0.84,0
1914,0.54,0.09,0.83,0
1915,0.53,0.09,0.84,0
1916,0.55,0.09,0.85,0
1917,0.54,0.09,0.84,0
1918,0.55,0.09,0.84,0
1919,0.54,0.09,0.84,0
1920,0.54,0.09,0.84,0
1921,0.54,0.09,0.83,0
1922,0.54,0.09,0.84,0
1923,0.54,0.09,0.84,0
1924,0.54,0.09,0.84,0
1925,0.54,0.09,0.85,0
1926,0.54,0.08,0.84,0
1927,0.54,0.08,0.84,0
1928,0.54,0.09,0.84,0
1929,0.55,0.09,0.83,0
1930,0.53,0.09,0.84,0
1931,0.55,0.07,0.83,0
1932,0.52,0.09,0.85,0
1933,0.55,0.09,0.84,0
1934,0.53,0.1,0.85,0
1935,0.52,0.07,0.85,0
1936,0.56,0.1,0.86,0
1937,0.52,0.05,0.86,0
1938,0.52,0.11,0.85,0
1939,0.48,0.08,0.85,0
1940,0.51,0.08,0.85,0
1941,0.48,0.09,0.85,0
1942,0.5,0.11,0.9,0
1943,0.52,0.07,0.89,0
1944,0.51,0.09,0.87,0
1945,0.47,0.1,0.87,0
1946,0.57,0.08,0.84,0
1947,0.54,0.08,0.8,0
1948,0.53,0.08,0.79,0
1949,0.54,0.09,0.82,0
1950,0.56,0.08,0.84,0
1951,0.56,0.09,0.83,0
1952,0.57,0.09,0.84,0
1953,0.56,0.09,0.85,0
1954,0.56,0.09,0.83,0
1955,0.55,0.09,0.83,0
1956,0.56,0.1,0.82,0
1957,0.55,0.09,0.82,0
1958,0.56,0.09,0.84,0
1959,0.56,0.08,0.85,0
1960,0.56,0.07,0.84,0
1961,0.56,0.08,0.84,0
1962,0.55,0.08,0.83,0
1963,0.55,0.08,0.83,0
1964,0.55,0.08,0.84,0
1965,0.55,0.09,0.84,0
1966,0.55,0.08,0.84,0
1967,0.54,0.09,0.84,0
1968,0.55,0.09,0.84,0
1969,0.55,0.09,0.84,0
1970,0.54,0.08,0.84,0
1971,0.55,0.08,0.84,0
1972,0.54,0.08,0.84,0
1973,0.54,0.08,0.84,0
1974,0.54,0.08,0.84,0
1975,0.54,0.08,0.84,2
1976,0.54,0.07,0.84,2
1977,0.54,0.09,0.84,2
1978,0.54,0.08,0.84,2
1979,0.54,0.08,0.84,2
1980,0.54,0.08,0.84,2
1981,0.53,0.07,0.84,2
1982,0.54,0.08,0.85,2
1983,0.54,0.08,0.84,2
1984,0.54,0.09,0.84,2
1985,0.54,0.08,0.85,2
1986,0.54,0.08,0.84,2
1987,0.53,0.08,0.83,2
1988,0.54,0.08,0.85,2
1989,0.53,0.08,0.84,2
1990,0.54,0.08,0.84,2
1991,0.55,0.08,0.84,2
1992,0.54,0.08,0.81,2
1993,0.53,0.09,0.79,2
1994,0.52,0.11,0.77,2
1995,0.61,0.09,0.75,2
1996,0.47,0.17,0.79,2
1997,0.34,0.28,0.86,2
1998,0.42,0.35,0.99,2
1999,0.45,0.37,1.24,2
2000,0.38,0.38,1.48,2
2001,0.62,0.36,1.73,2
2002,0.65,0.27,1.84,2
2003,0.76,0.17,1.69,2
2004,1.06,0.02,1.36,2
2005,1.09,-0.11,0.98,2
2006,1.04,-0.15,0.5,2
2007,0.91,-0.21,0.27,2
2008,0.54,-0.18,0.09,2
2009,0.3,-0.14,0.01,2
2010,0.09,-0.07,-0.05,2
2011,0.0,0.02,0.04,2
2012,-0.19,0.1,0.18,2
2013,-0.15,0.19,0.6,2
2014,-0.22,0.31,0.82,2
2015,-0.06,0.36,1.1,2
2016,0.0,0.38,0.89,2
2017,0.35,0.32,1.22,2
2018,0.19,0.35,1.21,2
2019,0.5,0.25,1.42,2
2020,0.39,0.22,1.46,2
2021,0.57,0.12,1.5,2
2022,0.59,0.1,1.42,2
2023,0.57,0.05,1.23,2
2024,0.59,-0.01,1.12,2
2025,0.48,-0.02,1.0,2
2026,0.63,-0.06,0.95,2
2027,0.55,-0.1,0.84,2
2028,0.45,-0.05,0.77,2
2029,0.46,-0.05,0.77,2
2030,0.38,-0.02,0.77,2
2031,0.41,0.02,0.82,2
2032,0.38,0.03,0.85,2
2033,0.38,0.06,0.89,2
2034,0.37,0.06,0.93,2
2035,0.38,0.08,0.96,2
2036,0.37,0.09,0.97,2
2037,0.37,0.1,0.97,2
2038,0.37,0.1,0.97,2
2039,0.39,0.09,0.96,2
2040,0.38,0.1,0.94,2
2041,0.42,0.09,0.92,2
2042,0.42,0.08,0.93,2
2043,0.43,0.07,0.92,2
2044,0.42,0.09,0.9,2
2045,0.45,0.09,0.92,2
2046,0.44,0.09,0.91,2
2047,0.43,0.1,0.9,2
2048,0.46,0.06,0.91,2
2049,0.39,0.1,0.89,2
2050,0.39,0.07,0.93,2
2051,0.41,0.1,0.87,2
2052,0.41,0.06,0.89,2
2053,0.37,0.1,0.96,2
2054,0.45,0.11,0.97,2
2055,0.41,0.11,0.97,2
2056,0.45,0.09,0.92,2
2057,0.47,0.01,0.8,2
2058,0.41,0.17,0.82,2
2059,0.48,0.05,0.89,2
2060,0.43,0.09,0.86,2
2061,0.38,0.11,0.93,2
2062,0.42,0.14,0.97,2
2063,0.47,0.07,0.98,2
2064,0.5,0.06,0.87,2
2065,0.48,0.1,0.84,2
2066,0.46,0.09,0.86,2
2067,0.46,0.09,0.87,2
2068,0.48,0.1,0.85,2
2069,0.47,0.1,0.86,2
2070,0.49,0.1,0.89,2
2071,0.49,0.09,0.88,2
2072,0.47,0.09,0.87,2
2073,0.48,0.09,0.87,2
2074,0.48,0.09,0.88,2
2075,0.49,0.1,0.87,0
2076,0.5,0.08,0.87,0
2077,0.47,0.09,0.86,0
2078,0.48,0.1,0.86,0
2079,0.47,0.09,0.86,0
2080,0.52,0.06,0.87,0
2081,0.48,0.09,0.86,0
2082,0.49,0.09,0.86,0
2083,0.49,0.1,0.86,0
2084,0.51,0.09,0.87,0
2085,0.5,0.1,0.87,0
2086,0.49,0.09,0.86,0
2087,0.5,0.09,0.86,0
2088,0.5,0.1,0.87,0
2089,0.49,0.09,0.87,0
2090,0.5,0.08,0.86,0
2091,0.5,0.08,0.86,0
2092,0.49,0.09,0.86,0
2093,0.5,0.09,0.86,0
2094,0.49,0.09,0.86,0
2095,0.5,0.09,0.86,0
2096,0.5,0.09,0.87,0
2097,0.5,0.09,0.87,0
2098,0.49,0.08,0.87,0
2099,0.5,0.09,0.87,0
2100,0.5,0.08,0.86,0
2101,0.5,0.09,0.86,0
2102,0.5,0.09,0.86,0
2103,0.5,0.09,0.86,0
2104,0.5,0.09,0.87,0
2105,0.5,0.09,0.87,0
2106,0.5,0.09,0.86,0
2107,0.5,0.09,0.87,0
2108,0.5,0.09,0.86,0
2109,0.5,0.08,0.86,0
2110,0.49,0.09,0.87,0
2111,0.51,0.09,0.87,0
2112,0.5,0.08,0.86,0
2113,0.5,0.08,0.86,0
2114,0.51,0.09,0.87,0
2115,0.49,0.09,0.86,0
2116,0.49,0.08,0.86,0
2117,0.49,0.09,0.86,0
2118,0.5,0.08,0.86,0
2119,0.5,0.09,0.87,0
2120,0.49,0.08,0.87,0
2121,0.51,0.07,0.87,0
2122,0.5,0.09,0.86,0
2123,0.5,0.09,0.86,0
2124,0.49,0.08,0.86,0
2125,0.5,0.1,0.86,0
2126,0.5,0.09,0.86,0
2127,0.5,0.08,0.86,0
2128,0.5,0.08,0.87,0
2129,0.5,0.09,0.87,0
2130,0.49,0.09,0.86,0
2131,0.5,0.09,0.86,0
2132,0.49,0.09,0.86,0
2133,0.5,0.09,0.86,0
2134,0.49,0.09,0.86,0
2135,0.5,0.09,0.86,0
2136,0.5,0.08,0.86,0
2137,0.51,0.09,0.86,0
2138,0.51,0.09,0.86,0
2139,0.51,0.08,0.86,0
2140,0.5,0.09,0.86,0
2141,0.51,0.09,0.86,0
2142,0.48,0.08,0.86,0
2143,0.52,0.08,0.87,0
2144,0.49,0.09,0.86,0
2145,0.5,0.09,0.86,0
2146,0.5,0.09,0.86,0
2147,0.5,0.09,0.86,0
2148,0.5,0.09,0.86,0
2149,0.5,0.09,0.87,0
2150,0.5,0.09,0.86,0
2151,0.5,0.08,0.86,0
2152,0.51,0.09,0.86,0
2153,0.5,0.09,0.86,0
2154,0.5,0.09,0.86,0
2155,0.5,0.09,0.86,0
2156,0.5,0.09,0.86,0
2157,0.51,0.09,0.86,0
2158,0.51,0.09,0.86,0
2159,0.5,0.08,0.87,0
2160,0.51,0.08,0.86,0
2161,0.51,0.08,0.86,0
2162,0.51,0.09,0.86,0
2163,0.51,0.09,0.86,0
2164,0.51,0.09,0.87,0
2165,0.5,0.08,0.86,0
2166,0.5,0.08,0.86,0
2167,0.51,0.09,0.86,0
2168,0.51,0.09,0.86,0
2169,0.5,0.08,0.86,0
2170,0.51,0.08,0.86,0
2171,0.51,0.08,0.86,0
2172,0.51,0.07,0.87,0
2173,0.5,0.08,0.86,0
2174,0.5,0.07,0.85,0
2175,0.5,0.08,0.86,0
2176,0.51,0.08,0.86,0
2177,0.51,0.07,0.86,0
2178,0.51,0.08,0.87,0
2179,0.51,0.08,0.86,0
2180,0.5,0.07,0.86,0
2181,0.51,0.08,0.87,0
2182,0.52,0.08,0.86,0
2183,0.5,0.08,0.86,0
2184,0.5,0.07,0.86,0
2185,0.51,0.07,0.86,0
2186,0.51,0.08,0.86,0
2187,0.51,0.07,0.87,0
2188,0.51,0.08,0.87,0
2189,0.5,0.08,0.86,0
2190,0.51,0.08,0.86,0
2191,0.51,0.07,0.86,0
2192,0.51,0.07,0.86,0
2193,0.51,0.08,0.86,0
2194,0.51,0.07,0.87,0
2195,0.5,0.07,0.86,0
2196,0.5,0.08,0.86,0
2197,0.5,0.07,0.86,0
2198,0.5,0.07,0.87,0
2199,0.47,0.08,0.86,0
2200,0.51,0.06,0.88,0
2201,0.46,0.08,0.87,0
2202,0.5,0.07,0.89,0
2203,0.47,0.05,0.88,0
2204,0.48,0.08,0.87,0
2205,0.47,0.06,0.86,0
2206,0.49,0.09,0.86,0
2207,0.48,0.07,0.87,0
2208,0.48,0.09,0.87,0
2209,0.46,0.08,0.88,0
2210,0.48,0.06,0.89,0
2211,0.46,0.06,0.87,0
2212,0.46,0.1,0.88,0
2213,0.52,0.07,0.92,0
2214,0.53,0.05,0.81,0
2215,0.47,0.08,0.82,0
2216,0.52,0.09,0.89,0
2217,0.52,0.06,0.87,0
2218,0.52,0.07,0.85,0
2219,0.52,0.07,0.87,0
2220,0.52,0.07,0.87,0
2221,0.51,0.07,0.86,0
2222,0.52,0.07,0.86,0
2223,0.52,0.07,0.86,0
2224,0.52,0.08,0.85,0
2225,0.52,0.07,0.86,2
2226,0.51,0.06,0.86,2
2227,0.52,0.06,0.86,2
2228,0.52,0.06,0.86,2
2229,0.52,0.07,0.86,2
2230,0.51,0.06,0.86,2
2231,0.51,0.07,0.86,2
2232,0.52,0.07,0.85,2
2233,0.53,0.07,0.86,2
2234,0.52,0.06,0.85,2
2235,0.52,0.06,0.86,2
2236,0.52,0.06,0.86,2
2237,0.52,0.06,0.86,2
2238,0.52,0.06,0.86,2
2239,0.52,0.06,0.85,2
2240,0.52,0.06,0.84,2
2241,0.51,0.07,0.84,2
2242,0.54,0.06,0.84,2
2243,0.49,0.08,0.81,2
2244,0.47,0.11,0.85,2
2245,0.36,0.18,0.87,2
2246,0.32,0.24,0.91,2
2247,0.38,0.29,1.09,2
2248,0.39,0.31,1.35,2
2249,0.57,0.32,1.6,2
2250,0.6,0.26,1.84,2
2251,0.68,0.14,1.74,2
2252,0.86,-0.03,1.52,2
2253,0.95,-0.1,1.18,2
2254,1.02,-0.13,0.89,2
2255,0.86,-0.17,0.48,2
2256,0.6,-0.24,0.22,2
2257,0.33,-0.21,0.04,2
2258,0.12,-0.13,-0.05,2
2259,-0.03,-0.06,-0.03,2
2260,-0.15,0.0,0.09,2
2261,-0.16,0.1,0.35,2
2262,-0.17,0.22,0.64,2
2263,-0.19,0.32,1.03,2
2264,-0.11,0.33,1.0,2
2265,0.15,0.32,1.3,2
2266,0.01,0.37,1.22,2
2267,0.39,0.24,1.33,2
2268,0.26,0.25,1.26,2
2269,0.45,0.19,1.42,2
2270,0.48,0.16,1.36,2
2271,0.46,0.1,1.3,2
2272,0.6,0.04,1.24,2
2273,0.51,-0.04,1.11,2
2274,0.54,-0.02,1.04,2
2275,0.64,-0.06,0.93,2
2276,0.47,-0.08,0.84,2
2277,0.53,-0.09,0.83,2
2278,0.42,-0.06,0.79,2
2279,0.43,-0.02,0.79,2
2280,0.38,0.0,0.82,2
2281,0.4,0.03,0.87,2
2282,0.39,0.04,0.91,2
2283,0.38,0.04,0.95,2
2284,0.37,0.04,0.96,2
2285,0.4,0.05,0.96,2
2286,0.39,0.06,0.93,2
2287,0.4,0.07,0.93,2
2288,0.44,0.06,0.95,2
2289,0.43,0.06,0.96,2
2290,0.41,0.04,0.93,2
2291,0.44,0.05,0.93,2
2292,0.45,0.05,0.91,2
2293,0.46,0.06,0.91,2
2294,0.44,0.05,0.91,2
2295,0.44,0.06,0.9,2
2296,0.44,0.08,0.91,2
2297,0.46,0.06,0.9,2
2298,0.4,0.02,0.94,2
2299,0.42,0.06,0.9,2
2300,0.45,0.06,0.9,2
2301,0.4,0.05,0.92,2
2302,0.43,0.09,0.94,2
2303,0.4,0.1,0.96,2
2304,0.46,0.04,0.94,2
2305,0.46,0.02,0.8,2
2306,0.45,0.11,0.9,2
2307,0.48,0.02,0.89,2
2308,0.4,0.06,0.88,2
2309,0.43,0.08,0.94,2
2310,0.45,0.11,0.97,2
2311,0.46,0.06,0.94,2
2312,0.52,0.06,0.87,2
2313,0.46,0.07,0.85,2
2314,0.46,0.07,0.87,2
2315,0.46,0.06,0.87,2
2316,0.47,0.06,0.87,2
2317,0.48,0.07,0.88,2
2318,0.47,0.06,0.89,2
2319,0.47,0.06,0.88,2
2320,0.48,0.06,0.88,2
2321,0.48,0.07,0.88,2
2322,0.47,0.06,0.89,2
2323,0.47,0.05,0.88,2
2324,0.47,0.06,0.87,2
2325,0.47,0.06,0.87,0
2326,0.47,0.06,0.87,0
2327,0.47,0.06,0.88,0
2328,0.47,0.06,0.88,0
2329,0.47,0.07,0.87,0
2330,0.47,0.07,0.88,0
2331,0.47,0.07,0.88,0
2332,0.47,0.06,0.88,0
2333,0.47,0.05,0.87,0
2334,0.47,0.06,0.87,0
2335,0.47,0.06,0.88,0
2336,0.46,0.06,0.87,0
2337,0.47,0.06,0.87,0
2338,0.46,0.05,0.88,0
2339,0.47,0.06,0.87,0
2340,0.47,0.06,0.88,0
2341,0.47,0.06,0.88,0
2342,0.47,0.06,0.88,0
2343,0.47,0.06,0.87,0
2344,0.47,0.07,0.88,0
2345,0.49,0.05,0.87,0
2346,0.48,0.04,0.87,0
2347,0.47,0.06,0.88,0
2348,0.47,0.06,0.87,0
2349,0.49,0.05,0.86,0
2350,0.48,0.05,0.87,0
2351,0.48,0.07,0.87,0
2352,0.48,0.06,0.88,0
2353,0.48,0.06,0.87,0
2354,0.48,0.06,0.87,0
2355,0.48,0.06,0.87,0
2356,0.48,0.06,0.87,0
2357,0.48,0.05,0.87,0
2358,0.48,0.06,0.87,0
2359,0.48,0.06,0.87,0
2360,0.48,0.06,0.87,0
2361,0.5,0.06,0.88,0
2362,0.48,0.06,0.87,0
2363,0.49,0.05,0.87,0
2364,0.47,0.06,0.87,0
2365,0.52,0.06,0.88,0
2366,0.48,0.06,0.87,0
2367,0.49,0.06,0.87,0
2368,0.48,0.06,0.88,0
2369,0.48,0.05,0.87,0
2370,0.48,0.05,0.87,0
2371,0.49,0.06,0.88,0
2372,0.48,0.06,0.87,0
2373,0.48,0.05,0.87,0
2374,0.47,0.05,0.87,0
2375,0.47,0.06,0.87,0
2376,0.47,0.06,0.87,0
2377,0.48,0.06,0.86,0
2378,0.48,0.06,0.87,0
2379,0.48,0.06,0.88,0
2380,0.47,0.05,0.87,0
2381,0.48,0.06,0.87,0
2382,0.48,0.06,0.88,0
2383,0.48,0.05,0.87,0
2384,0.47,0.06,0.87,0
2385,0.49,0.06,0.88,0
2386,0.48,0.06,0.88,0
2387,0.47,0.05,0.87,0
2388,0.48,0.06,0.87,0
2389,0.47,0.06,0.87,0
2390,0.48,0.06,0.87,0
2391,0.48,0.06,0.88,0
2392,0.48,0.06,0.88,0
2393,0.47,0.05,0.88,0
2394,0.47,0.06,0.88,0
2395,0.48,0.06,0.88,0
2396,0.48,0.05,0.88,0
2397,0.47,0.05,0.87,0
2398,0.47,0.06,0.87,0
2399,0.47,0.05,0.88,0
2400,0.47,0.06,0.87,0
2401,0.47,0.06,0.88,0
2402,0.47,0.05,0.87,0
2403,0.47,0.05,0.88,0
2404,0.47,0.05,0.88,0
2405,0.47,0.04,0.88,0
2406,0.46,0.05,0.88,0
2407,0.48,0.05,0.87,0
2408,0.46,0.05,0.87,0
2409,0.47,0.05,0.87,0
2410,0.47,0.05,0.88,0
2411,0.46,0.05,0.88,0
2412,0.53,0.04,0.88,0
2413,0.46,0.07,0.89,0
2414,0.51,0.04,0.88,0
2415,0.46,0.06,0.88,0
2416,0.47,0.05,0.88,0
2417,0.47,0.06,0.89,0
2418,0.46,0.08,0.92,0
2419,0.44,0.07,0.89,0
2420,0.5,0.03,0.87,0
2421,0.47,0.07,0.85,0
2422,0.5,0.07,0.86,0
2423,0.5,0.05,0.87,0
2424,0.49,0.06,0.86,0
2425,0.5,0.05,0.87,0
2426,0.5,0.05,0.87,0
2427,0.49,0.06,0.87,0
2428,0.51,0.06,0.87,0
2429,0.5,0.06,0.87,0
2430,0.48,0.06,0.86,0
2431,0.5,0.06,0.87,0
2432,0.49,0.05,0.86,0
2433,0.49,0.06,0.86,0
2434,0.49,0.06,0.87,0
2435,0.49,0.05,0.87,0
2436,0.5,0.05,0.86,0
2437,0.49,0.05,0.87,0
2438,0.5,0.06,0.87,0
2439,0.49,0.06,0.86,0
2440,0.49,0.06,0.87,0
2441,0.48,0.06,0.87,0
2442,0.49,0.05,0.86,0
2443,0.5,0.06,0.87,0
2444,0.5,0.06,0.87,0
2445,0.49,0.06,0.87,0
2446,0.48,0.05,0.87,0
2447,0.49,0.06,0.87,0
2448,0.49,0.05,0.87,0
2449,0.49,0.05,0.87,0
2450,0.49,0.06,0.87,2
2451,0.48,0.05,0.87,2
2452,0.49,0.05,0.87,2
2453,0.48,0.06,0.87,2
2454,0.49,0.05,0.87,2
2455,0.48,0.05,0.87,2
2456,0.48,0.06,0.87,2
2457,0.49,0.05,0.87,2
2458,0.48,0.06,0.87,2
2459,0.49,0.05,0.87,2
2460,0.48,0.05,0.87,2
2461,0.48,0.05,0.87,2
2462,0.49,0.05,0.87,2
2463,0.49,0.05,0.87,2
2464,0.49,0.05,0.87,2
2465,0.48,0.05,0.87,2
2466,0.48,0.05,0.86,2
2467,0.5,0.05,0.86,2
2468,0.48,0.06,0.86,2
2469,0.49,0.06,0.86,2
2470,0.54,0.03,0.85,2
2471,0.46,0.08,0.88,2
2472,0.33,0.13,0.93,2
2473,0.25,0.18,0.96,2
2474,0.32,0.22,1.13,2
2475,0.5,0.21,1.5,2
2476,0.46,0.22,1.72,2
2477,0.8,0.13,1.79,2
2478,0.78,0.0,1.57,2
2479,0.95,-0.06,1.35,2
2480,1.01,-0.12,0.97,2
2481,0.93,-0.19,0.63,2
2482,0.74,-0.2,0.32,2
2483,0.46,-0.2,0.16,2
2484,0.22,-0.14,0.09,2
2485,0.08,-0.08,0.07,2
2486,-0.05,-0.01,0.17,2
2487,-0.15,0.06,0.37,2
2488,-0.23,0.13,0.5,2
2489,-0.15,0.23,0.81,2
2490,-0.15,0.25,0.85,2
2491,-0.01,0.27,1.1,2
2492,0.06,0.3,0.99,2
2493,0.45,0.29,1.33,2
2494,0.33,0.32,1.27,2
2495,0.47,0.23,1.41,2
2496,0.56,0.23,1.43,2
2497,0.5,0.11,1.41,2
2498,0.62,0.09,1.33,2
2499,0.59,0.0,1.19,2
2500,0.53,-0.02,1.07,2
2501,0.6,-0.05,0.96,2
2502,0.47,-0.07,0.85,2
2503,0.52,-0.07,0.8,2
2504,0.47,-0.1,0.74,2
2505,0.44,-0.08,0.74,2
2506,0.39,-0.05,0.77,2
2507,0.35,-0.02,0.82,2
2508,0.37,0.01,0.87,2
2509,0.35,0.03,0.95,2
2510,0.35,0.04,0.97,2
2511,0.36,0.05,0.98,2
2512,0.4,0.06,0.98,2
2513,0.37,0.07,0.97,2
2514,0.36,0.06,0.97,2
2515,0.38,0.05,0.96,2
2516,0.4,0.04,0.93,2
2517,0.42,0.05,0.93,2
2518,0.41,0.05,0.93,2
2519,0.43,0.05,0.95,2
2520,0.41,0.06,0.94,2
2521,0.45,0.04,0.92,2
2522,0.42,0.06,0.91,2
2523,0.42,0.05,0.89,2
2524,0.41,0.05,0.9,2
2525,0.39,0.07,0.9,2
2526,0.45,0.04,0.87,2
2527,0.36,0.08,0.93,2
2528,0.44,0.06,0.97,2
2529,0.45,0.06,0.98,2
2530,0.43,0.09,0.96,2
2531,0.44,0.07,0.96,2
2532,0.42,0.01,0.86,2
2533,0.38,0.12,0.85,2
2534,0.45,0.05,0.87,2
2535,0.38,0.07,0.91,2
2536,0.41,0.08,0.94,2
2537,0.37,0.1,0.97,2
2538,0.45,0.04,0.96,2
2539,0.46,0.05,0.88,2
2540,0.45,0.09,0.87,2
2541,0.44,0.07,0.88,2
2542,0.46,0.07,0.91,2
2543,0.46,0.08,0.89,2
2544,0.46,0.07,0.9,2
2545,0.47,0.06,0.92,2
2546,0.43,0.12,0.88,2
2547,0.46,0.05,0.92,2
2548,0.45,0.08,0.88,2
2549,0.46,0.1,0.86,2
2550,0.46,0.11,0.88,0
2551,0.45,0.09,0.88,0
2552,0.45,0.06,0.88,0
2553,0.46,0.04,0.89,0
2554,0.46,0.03,0.87,0
2555,0.47,0.01,0.86,0
2556,0.46,0.02,0.86,0
2557,0.48,0.03,0.87,0
2558,0.5,0.05,0.9,0
2559,0.51,0.1,0.92,0
2560,0.48,0.1,0.92,0
2561,0.46,0.1,0.9,0
2562,0.46,0.1,0.88,0
2563,0.46,0.1,0.88,0
2564,0.46,0.08,0.88,0
2565,0.47,0.07,0.88,0
2566,0.46,0.05,0.86,0
2567,0.47,0.04,0.87,0
2568,0.47,0.06,0.88,0
2569,0.47,0.05,0.89,0
2570,0.46,0.06,0.89,0
2571,0.47,0.07,0.88,0
2572,0.46,0.08,0.88,0
2573,0.46,0.08,0.88,0
2574,0.46,0.07,0.88,0
2575,0.47,0.05,0.87,0
2576,0.48,0.04,0.87,0
2577,0.49,0.05,0.87,0
2578,0.47,0.08,0.87,0
2579,0.47,0.08,0.87,0
2580,0.46,0.09,0.87,0
2581,0.49,0.1,0.87,0
2582,0.5,0.1,0.87,0
2583,0.48,0.1,0.88,0
2584,0.47,0.11,0.88,0
2585,0.46,0.11,0.89,0
2586,0.46,0.11,0.89,0
2587,0.46,0.1,0.88,0
2588,0.47,0.08,0.87,0
2589,0.47,0.07,0.87,0
2590,0.47,0.08,0.87,0
2591,0.47,0.09,0.87,0
2592,0.46,0.1,0.86,0
2593,0.48,0.1,0.87,0
2594,0.5,0.1,0.89,0
2595,0.47,0.1,0.88,0
2596,0.48,0.1,0.87,0
2597,0.48,0.1,0.86,0
2598,0.5,0.09,0.85,0
2599,0.48,0.1,0.87,0
2600,0.48,0.1,0.87,0
2601,0.53,0.03,0.86,0
2602,0.44,0.12,0.87,0
2603,0.47,0.06,0.89,0
2604,0.42,0.1,0.88,0
2605,0.51,0.06,0.88,0
2606,0.39,0.12,0.88,0
2607,0.5,0.09,0.92,0
2608,0.38,0.1,0.89,0
2609,0.44,0.1,0.91,0
2610,0.46,0.09,0.89,0
2611,0.45,0.06,0.92,0
2612,0.46,0.12,0.87,0
2613,0.52,0.04,0.88,0
2614,0.47,0.06,0.89,0
2615,0.5,0.11,0.86,0
2616,0.51,0.11,0.87,0
2617,0.48,0.12,0.87,0
2618,0.47,0.12,0.88,0
2619,0.48,0.1,0.88,0
2620,0.46,0.09,0.88,0
2621,0.48,0.07,0.87,0
2622,0.5,0.06,0.86,0
2623,0.5,0.06,0.85,0
2624,0.51,0.07,0.85,0
2625,0.5,0.09,0.86,2
2626,0.49,0.09,0.87,2
2627,0.49,0.09,0.88,2
2628,0.51,0.09,0.87,2
2629,0.5,0.09,0.87,2
2630,0.48,0.1,0.87,2
2631,0.47,0.1,0.88,2
2632,0.48,0.1,0.87,2
2633,0.47,0.09,0.86,2
2634,0.47,0.07,0.87,2
2635,0.47,0.07,0.87,2
2636,0.48,0.06,0.87,2
2637,0.49,0.05,0.87,2
2638,0.49,0.07,0.87,2
2639,0.48,0.07,0.87,2
2640,0.46,0.07,0.86,2
2641,0.46,0.09,0.85,2
2642,0.47,0.1,0.84,2
2643,0.46,0.12,0.86,2
2644,0.42,0.18,0.87,2
2645,0.34,0.25,0.94,2
2646,0.22,0.3,1.09,2
2647,0.21,0.31,1.44,2
2648,0.37,0.36,1.88,2
2649,0.55,0.27,1.97,2
2650,0.81,0.14,1.81,2
2651,1.05,-0.01,1.46,2
2652,1.1,-0.1,1.11,2
2653,1.0,-0.1,0.74,2
2654,0.8,-0.13,0.35,2
2655,0.53,-0.23,0.12,2
2656,0.22,-0.22,-0.06,2
2657,0.08,-0.19,-0.11,2
2658,-0.07,-0.05,-0.06,2
2659,-0.2,0.05,0.08,2
2660,-0.22,0.15,0.38,2
2661,-0.28,0.31,0.59,2
2662,-0.22,0.42,0.97,2
2663,-0.21,0.49,0.95,2
2664,0.16,0.48,1.29,2
2665,0.08,0.51,1.25,2
2666,0.51,0.3,1.46,2
2667,0.35,0.26,1.36,2
2668,0.56,0.12,1.37,2
2669,0.6,0.05,1.24,2
2670,0.48,0.05,1.18,2
2671,0.52,0.0,1.04,2
2672,0.53,-0.03,1.0,2
2673,0.63,-0.02,0.96,2
2674,0.56,-0.02,0.9,2
2675,0.58,-0.02,0.87,2
2676,0.5,0.0,0.85,2
2677,0.47,0.02,0.84,2
2678,0.47,0.07,0.86,2
2679,0.46,0.09,0.9,2
2680,0.45,0.11,0.89,2
2681,0.45,0.11,0.94,2
2682,0.46,0.13,0.94,2
2683,0.46,0.1,0.92,2
2684,0.46,0.1,0.88,2
2685,0.46,0.11,0.85,2
2686,0.52,0.11,0.88,2
2687,0.48,0.1,0.88,2
2688,0.47,0.11,0.88,2
2689,0.49,0.12,0.87,2
2690,0.46,0.11,0.86,2
2691,0.49,0.12,0.86,2
2692,0.47,0.09,0.86,2
2693,0.47,0.11,0.87,2
2694,0.5,0.09,0.88,2
2695,0.42,0.14,0.9,2
2696,0.46,0.12,0.92,2
2697,0.46,0.12,0.92,2
2698,0.49,0.1,0.94,2
2699,0.46,0.1,0.87,2
2700,0.5,0.13,0.83,2
2701,0.44,0.14,0.87,2
2702,0.49,0.09,0.86,2
2703,0.4,0.13,0.86,2
2704,0.46,0.13,0.91,2
2705,0.47,0.11,0.94,2
2706,0.52,0.1,0.9,2
2707,0.48,0.11,0.86,2
2708,0.46,0.13,0.86,2
2709,0.48,0.13,0.84,2
2710,0.5,0.12,0.86,2
2711,0.47,0.14,0.87,2
2712,0.49,0.11,0.87,2
2713,0.48,0.12,0.87,2
2714,0.47,0.11,0.86,2
2715,0.49,0.11,0.87,2
2716,0.47,0.11,0.86,2
2717,0.48,0.11,0.86,2
2718,0.47,0.11,0.86,2
2719,0.48,0.11,0.87,2
2720,0.48,0.12,0.87,2
2721,0.48,0.11,0.87,2
2722,0.48,0.11,0.86,2
2723,0.47,0.11,0.86,2
2724,0.47,0.11,0.87,2
2725,0.47,0.12,0.86,0
2726,0.5,0.11,0.86,0
2727,0.47,0.12,0.87,0
2728,0.48,0.12,0.87,0
2729,0.48,0.11,0.87,0
2730,0.47,0.11,0.86,0
2731,0.47,0.11,0.87,0
2732,0.48,0.11,0.87,0
2733,0.48,0.12,0.86,0
2734,0.47,0.11,0.86,0
2735,0.47,0.12,0.86,0
2736,0.49,0.12,0.87,0
2737,0.48,0.11,0.87,0
2738,0.48,0.12,0.87,0
2739,0.48,0.12,0.87,0
2740,0.48,0.11,0.86,0
2741,0.47,0.11,0.85,0
2742,0.46,0.09,0.84,0
2743,0.54,0.09,0.81,0
2744,0.52,0.06,0.81,0
2745,0.54,0.02,0.85,0
2746,0.46,0.02,0.8,0
2747,0.46,0.01,0.78,0
2748,0.5,0.04,0.79,0
2749,0.56,0.03,0.86,0
2750,0.52,0.06,0.88,0
2751,0.51,0.11,0.95,0
2752,0.54,0.11,0.89,0
2753,0.53,0.13,0.89,0
2754,0.54,0.16,0.88,0
2755,0.52,0.16,0.87,0
2756,0.57,0.17,0.85,0
2757,0.56,0.16,0.87,0
2758,0.58,0.16,0.86,0
2759,0.55,0.18,0.86,0
2760,0.54,0.15,0.82,0
2761,0.52,0.14,0.85,0
2762,0.57,0.13,0.82,0
2763,0.52,0.14,0.84,0
2764,0.58,0.15,0.77,0
2765,0.55,0.17,0.82,0
2766,0.56,0.16,0.83,0
2767,0.55,0.17,0.81,0
2768,0.52,0.16,0.84,0
2769,0.52,0.16,0.86,0
2770,0.52,0.15,0.86,0
2771,0.52,0.16,0.85,0
2772,0.54,0.16,0.85,0
2773,0.52,0.17,0.84,0
2774,0.52,0.17,0.85,0
2775,0.5,0.17,0.85,0
2776,0.52,0.16,0.84,0
2777,0.52,0.17,0.85,0
2778,0.5,0.16,0.84,0
2779,0.51,0.16,0.86,0
2780,0.49,0.17,0.85,0
2781,0.51,0.18,0.86,0
2782,0.5,0.17,0.85,0
2783,0.52,0.15,0.85,0
2784,0.51,0.16,0.84,0
2785,0.52,0.14,0.85,0
2786,0.52,0.13,0.84,0
2787,0.5,0.14,0.85,0
2788,0.48,0.17,0.86,0
2789,0.52,0.17,0.87,0
2790,0.5,0.17,0.85,0
2791,0.51,0.07,0.87,0
2792,0.51,0.05,0.81,0
2793,0.52,0.03,0.84,0
2794,0.5,0.01,0.81,0
2795,0.51,-0.01,0.77,0
2796,0.54,-0.05,0.77,0
2797,0.58,-0.11,0.77,0
2798,0.61,-0.12,0.81,0
2799,0.6,-0.12,0.82,0
2800,0.59,-0.09,0.86,0
2801,0.56,-0.07,0.86,0
2802,0.55,-0.07,0.89,0
2803,0.56,-0.07,0.81,0
2804,0.59,-0.07,0.82,0
2805,0.59,-0.07,0.8,0
2806,0.63,-0.1,0.76,0
2807,0.66,-0.1,0.79,0
2808,0.63,-0.1,0.78,0
2809,0.65,-0.08,0.79,0
2810,0.64,-0.06,0.8,0
2811,0.62,-0.06,0.75,0
2812,0.64,-0.08,0.75,0
2813,0.64,-0.1,0.75,0
2814,0.67,-0.11,0.74,0
2815,0.7,-0.1,0.75,0
2816,0.71,-0.08,0.74,0
2817,0.71,-0.08,0.74,0
2818,0.68,-0.08,0.73,0
2819,0.66,-0.09,0.75,0
2820,0.65,-0.09,0.75,0
2821,0.65,-0.06,0.76,0
2822,0.66,-0.05,0.77,0
2823,0.66,-0.04,0.76,0
2824,0.67,-0.02,0.76,0
2825,0.67,-0.02,0.77,0
2826,0.68,-0.02,0.75,0
2827,0.65,-0.03,0.75,0
2828,0.67,-0.03,0.75,0
2829,0.67,-0.03,0.75,0
2830,0.67,-0.03,0.75,0
2831,0.66,-0.01,0.76,0
