sequence,accelx,accely,accelz,event
0,0.42,0.73,0.7,0
1,0.34,0.71,0.76,0
2,0.2,0.03,0.97,0
3,0.2,0.04,0.98,0
4,0.19,0.04,0.97,0
5,0.2,0.03,0.97,0
6,0.2,0.04,0.97,0
7,0.2,0.04,0.97,0
8,0.2,0.04,0.98,0
9,0.2,0.03,0.98,0
10,0.2,0.03,0.98,0
11,0.2,0.04,0.98,0
12,0.2,0.04,0.97,0
13,0.2,0.03,0.97,0
14,0.2,0.04,0.98,0
15,0.2,0.04,0.97,0
16,0.19,0.04,0.97,0
17,0.2,0.03,0.98,0
18,0.2,0.03,0.98,0
19,0.2,0.03,0.98,0
20,0.2,0.03,0.98,0
21,0.2,0.04,0.98,0
22,0.2,0.04,0.97,0
23,0.21,0.03,0.97,0
24,0.19,0.04,0.98,0
25,0.19,0.03,0.97,0
26,0.2,0.04,0.98,0
27,0.2,0.03,0.97,0
28,0.2,0.04,0.98,0
29,0.19,0.04,0.98,0
30,0.19,0.04,0.98,0
31,0.19,0.04,0.98,0
32,0.18,0.04,0.98,0
33,0.17,0.04,0.98,0
34,0.17,0.04,0.98,0
35,0.16,0.04,0.98,0
36,0.17,0.03,0.98,0
37,0.15,0.03,0.98,0
38,0.15,0.03,0.98,0
39,0.11,0.03,0.98,0
40,0.13,0.05,0.98,0
41,0.1,0.04,0.98,0
42,0.1,0.04,0.97,0
43,0.11,0.06,1.0,0
44,0.13,0.03,0.98,0
45,0.14,0.03,0.99,0
46,0.14,0.04,0.98,0
47,0.11,0.03,0.98,0
48,0.11,0.02,0.98,0
49,0.09,0.04,0.99,0
50,0.1,0.03,1.02,0
51,0.07,0.06,1.03,0
52,0.17,0.02,0.97,0
53,0.22,0.03,0.98,0
54,0.21,0.08,0.96,0
55,0.21,0.04,0.97,0
56,0.21,0.05,0.97,0
57,0.22,0.05,0.97,0
58,0.21,0.04,0.98,0
59,0.22,0.04,0.97,0
60,0.21,0.03,0.98,0
61,0.21,0.04,0.98,0
62,0.21,0.04,0.97,0
63,0.21,0.04,0.97,0
64,0.21,0.04,0.97,0
65,0.21,0.03,0.97,0
66,0.21,0.03,0.97,0
67,0.21,0.04,0.97,0
68,0.21,0.03,0.97,0
69,0.22,0.04,0.97,0
70,0.21,0.03,0.97,0
71,0.21,0.04,0.97,0
72,0.21,0.03,0.98,0
73,0.21,0.03,0.98,0
74,0.21,0.03,0.97,0
75,0.21,0.04,0.97,2
76,0.21,0.03,0.97,2
77,0.21,0.03,0.97,2
78,0.21,0.03,0.97,2
79,0.21,0.03,0.98,2
80,0.21,0.03,0.97,2
81,0.21,0.03,0.98,2
82,0.21,0.04,0.98,2
83,0.21,0.04,0.97,2
84,0.21,0.04,0.97,2
85,0.21,0.03,0.97,2
86,0.21,0.03,0.97,2
87,0.21,0.04,0.98,2
88,0.21,0.03,0.98,2
89,0.21,0.03,0.98,2
90,0.21,0.03,0.97,2
91,0.24,0.04,0.97,2
92,0.2,0.05,0.98,2
93,0.21,0.04,0.98,2
94,0.2,0.04,1.0,2
95,0.19,0.03,1.01,2
96,0.13,0.05,1.02,2
97,0.19,0.04,0.98,2
98,0.15,0.05,1.02,2
99,0.06,0.05,1.12,2
100,0.13,0.0,1.18,2
101,0.21,-0.04,1.09,2
102,0.32,-0.11,0.95,2
103,0.37,-0.13,0.78,2
104,0.4,-0.03,0.62,2
105,0.29,0.14,0.57,2
106,0.14,0.31,0.79,2
107,-0.01,0.38,1.06,2
108,-0.06,0.39,1.28,2
109,0.08,0.36,1.46,2
110,0.22,0.22,1.48,2
111,0.12,0.11,1.51,2
112,0.06,-0.03,1.58,2
113,0.2,-0.21,1.64,2
114,0.26,-0.26,1.53,2
115,0.5,-0.41,1.39,2
116,0.6,-0.46,1.1,2
117,0.65,-0.5,0.81,2
118,0.57,-0.49,0.58,2
119,0.38,-0.5,0.44,2
120,0.25,-0.43,0.35,2
121,0.09,-0.31,0.23,2
122,0.13,-0.24,0.14,2
123,-0.02,-0.09,0.21,2
124,-0.26,-0.04,0.25,2
125,-0.27,0.1,0.51,2
126,-0.51,0.19,0.53,2
127,-0.31,0.23,0.84,2
128,-0.45,0.32,0.87,2
129,-0.36,0.32,1.06,2
130,-0.22,0.29,1.11,2
131,-0.17,0.26,1.25,2
132,-0.13,0.23,1.35,2
133,-0.03,0.24,1.47,2
134,-0.19,0.23,1.49,2
135,0.11,0.03,1.4,2
136,0.13,-0.16,1.25,2
137,0.27,-0.24,1.18,2
138,0.27,-0.23,1.12,2
139,0.02,-0.02,1.02,2
140,0.09,0.09,1.03,2
141,0.03,0.17,0.98,2
142,0.1,0.23,0.99,2
143,0.1,0.23,0.97,2
144,0.13,0.16,0.97,2
145,0.09,0.14,0.98,2
146,0.07,0.12,0.98,2
147,0.1,0.13,1.0,2
148,0.14,0.12,1.0,2
149,0.16,0.12,0.99,2
150,0.16,0.11,0.98,2
151,0.17,0.11,0.98,2
152,0.14,0.11,0.98,2
153,0.12,0.11,0.98,2
154,0.1,0.09,0.96,2
155,0.11,0.11,0.95,2
156,0.1,0.11,0.97,2
157,0.1,0.09,1.0,2
158,0.09,0.12,0.98,2
159,0.08,0.11,0.97,2
160,0.13,0.11,0.99,2
161,0.11,0.11,1.04,2
162,0.09,0.12,1.06,2
163,0.13,0.12,0.99,2
164,0.18,0.09,0.9,2
165,0.11,0.14,0.95,2
166,0.13,0.09,0.94,2
167,0.08,0.14,0.98,2
168,0.11,0.1,1.0,2
169,0.09,0.1,1.07,2
170,0.09,0.1,1.03,2
171,0.17,0.12,0.98,2
172,0.15,0.11,0.96,2
173,0.18,0.11,0.95,2
174,0.17,0.11,0.96,2
175,0.16,0.1,0.97,0
176,0.17,0.11,0.98,0
177,0.16,0.11,0.97,0
178,0.14,0.1,0.98,0
179,0.16,0.11,0.98,0
180,0.15,0.1,0.98,0
181,0.14,0.11,0.98,0
182,0.16,0.11,0.98,0
183,0.14,0.1,0.98,0
184,0.15,0.11,0.97,0
185,0.18,0.1,0.97,0
186,0.15,0.11,0.98,0
187,0.16,0.1,0.97,0
188,0.16,0.1,0.97,0
189,0.16,0.1,0.98,0
190,0.16,0.11,0.97,0
191,0.16,0.11,0.97,0
192,0.19,0.1,0.98,0
193,0.15,0.12,0.96,0
194,0.14,0.12,0.98,0
195,0.09,0.14,0.98,0
196,0.17,0.11,0.97,0
197,0.17,0.11,0.96,0
198,0.18,0.08,0.97,0
199,0.17,0.05,0.97,0
200,0.18,0.07,0.99,0
201,0.19,0.07,0.99,0
202,0.2,0.11,0.99,0
203,0.21,0.13,1.0,0
204,0.18,0.15,0.97,0
205,0.18,0.12,0.96,0
206,0.17,0.11,0.97,0
207,0.17,0.11,0.97,0
208,0.19,0.1,0.99,0
209,0.2,0.11,0.99,0
210,0.21,0.09,0.98,0
211,0.21,0.1,0.97,0
212,0.18,0.1,0.96,0
213,0.17,0.11,0.97,0
214,0.18,0.1,0.98,0
215,0.2,0.08,0.98,0
216,0.21,0.09,0.98,0
217,0.19,0.11,0.97,0
218,0.18,0.11,0.97,0
219,0.16,0.1,0.97,0
220,0.18,0.1,0.98,0
221,0.17,0.1,0.98,0
222,0.17,0.1,0.97,0
223,0.18,0.09,0.98,0
224,0.17,0.1,0.98,0
225,0.18,0.1,0.98,0
226,0.16,0.1,0.98,0
227,0.17,0.1,0.98,0
228,0.16,0.1,0.98,0
229,0.17,0.09,0.97,0
230,0.16,0.1,0.97,0
231,0.17,0.1,0.97,0
232,0.17,0.1,0.97,0
233,0.18,0.1,0.97,0
234,0.17,0.09,0.98,0
235,0.17,0.09,0.98,0
236,0.18,0.09,0.97,0
237,0.17,0.1,0.98,0
238,0.18,0.09,0.98,0
239,0.17,0.09,0.98,0
240,0.17,0.1,0.98,0
241,0.18,0.1,0.98,0
242,0.17,0.1,0.98,0
243,0.16,0.1,0.97,0
244,0.17,0.1,0.97,0
245,0.18,0.09,0.97,0
246,0.18,0.09,0.98,0
247,0.17,0.1,0.98,0
248,0.16,0.1,0.97,0
249,0.17,0.1,0.98,0
250,0.18,0.1,0.98,0
251,0.17,0.09,0.98,0
252,0.17,0.09,0.98,0
253,0.18,0.09,0.98,0
254,0.17,0.1,0.98,0
255,0.17,0.1,0.98,0
256,0.18,0.1,0.97,0
257,0.17,0.1,0.97,0
258,0.18,0.1,0.97,0
259,0.17,0.09,0.97,0
260,0.18,0.09,0.97,0
261,0.17,0.09,0.98,0
262,0.17,0.09,0.98,0
263,0.18,0.09,0.98,0
264,0.17,0.1,0.97,0
265,0.18,0.09,0.97,0
266,0.17,0.1,0.97,0
267,0.18,0.09,0.97,0
268,0.19,0.09,0.97,0
269,0.17,0.09,0.97,0
270,0.18,0.1,0.98,0
271,0.18,0.1,0.98,0
272,0.19,0.1,0.98,0
273,0.18,0.1,0.97,0
274,0.18,0.1,0.98,0
275,0.18,0.1,0.97,0
276,0.18,0.1,0.97,0
277,0.19,0.1,0.98,0
278,0.17,0.1,0.97,0
279,0.19,0.09,0.97,0
280,0.17,0.1,0.98,0
281,0.19,0.09,0.97,0
282,0.15,0.1,0.98,0
283,0.18,0.1,0.99,0
284,0.17,0.09,0.98,0
285,0.17,0.1,0.97,0
286,0.16,0.1,0.97,0
287,0.17,0.09,0.97,0
288,0.16,0.1,0.97,0
289,0.19,0.09,0.98,0
290,0.13,0.1,0.97,0
291,0.14,0.1,0.98,0
292,0.12,0.11,0.98,0
293,0.16,0.08,0.98,0
294,0.12,0.11,0.99,0
295,0.11,0.1,1.0,0
296,0.14,0.08,0.99,0
297,0.11,0.09,0.99,0
298,0.16,0.09,1.01,0
299,0.15,0.09,1.04,0
300,0.14,0.09,0.98,0
301,0.2,0.09,0.94,0
302,0.18,0.1,0.93,0
303,0.18,0.1,0.96,0
304,0.2,0.1,0.98,0
305,0.18,0.1,0.98,0
306,0.18,0.1,0.98,0
307,0.18,0.1,0.98,0
308,0.17,0.09,0.98,0
309,0.19,0.1,0.98,0
310,0.19,0.1,0.97,0
311,0.19,0.1,0.98,0
312,0.19,0.1,0.98,0
313,0.18,0.1,0.97,0
314,0.19,0.1,0.97,0
315,0.19,0.1,0.97,0
316,0.18,0.1,0.98,0
317,0.19,0.1,0.98,0
318,0.19,0.1,0.98,0
319,0.17,0.1,0.97,0
320,0.19,0.1,0.98,0
321,0.18,0.1,0.97,0
322,0.19,0.09,0.97,0
323,0.18,0.1,0.97,0
324,0.19,0.09,0.97,0
325,0.19,0.1,0.98,2
326,0.18,0.09,0.98,2
327,0.19,0.1,0.98,2
328,0.17,0.09,0.98,2
329,0.19,0.09,0.98,2
330,0.18,0.1,0.97,2
331,0.17,0.09,0.97,2
332,0.18,0.1,0.97,2
333,0.16,0.1,0.97,2
334,0.19,0.09,0.98,2
335,0.18,0.09,0.97,2
336,0.19,0.09,0.98,2
337,0.19,0.09,0.97,2
338,0.18,0.09,0.97,2
339,0.19,0.09,0.97,2
340,0.2,0.1,0.97,2
341,0.2,0.11,0.97,2
342,0.19,0.13,0.94,2
343,0.2,0.22,0.85,2
344,0.17,0.36,0.84,2
345,0.14,0.47,0.92,2
346,0.1,0.5,0.98,2
347,0.17,0.48,1.1,2
348,0.16,0.49,1.29,2
349,0.13,0.48,1.49,2
350,0.08,0.4,1.7,2
351,0.27,0.29,1.9,2
352,0.45,0.11,1.97,2
353,0.74,-0.01,1.77,2
354,1.07,-0.34,1.38,2
355,0.94,-0.41,0.84,2
356,0.92,-0.36,0.51,2
357,0.59,-0.31,0.22,2
358,0.52,-0.14,0.13,2
359,0.24,-0.02,-0.06,2
360,0.1,0.06,-0.14,2
361,-0.06,0.15,-0.17,2
362,-0.14,0.29,0.03,2
363,-0.26,0.58,0.44,2
364,-0.5,0.69,0.76,2
365,-0.14,0.75,1.19,2
366,-0.39,0.81,1.34,2
367,0.08,0.53,1.39,2
368,-0.13,0.63,1.5,2
369,0.04,0.39,1.71,2
370,0.16,0.31,1.67,2
371,0.27,0.0,1.54,2
372,0.42,-0.17,1.34,2
373,0.29,-0.1,1.19,2
374,0.22,-0.02,1.07,2
375,0.23,0.03,0.99,2
376,0.24,0.03,0.98,2
377,0.18,0.13,0.92,2
378,0.21,0.14,0.94,2
379,0.18,0.21,0.95,2
380,0.19,0.2,0.97,2
381,0.2,0.21,0.98,2
382,0.16,0.22,0.98,2
383,0.17,0.22,0.96,2
384,0.21,0.2,0.96,2
385,0.21,0.19,0.97,2
386,0.2,0.18,0.97,2
387,0.21,0.18,0.97,2
388,0.21,0.18,0.96,2
389,0.22,0.2,0.95,2
390,0.2,0.15,0.95,2
391,0.18,0.2,0.94,2
392,0.21,0.19,0.95,2
393,0.15,0.18,0.94,2
394,0.14,0.23,1.01,2
395,0.2,0.18,1.05,2
396,0.19,0.21,1.06,2
397,0.21,0.18,0.99,2
398,0.23,0.15,0.87,2
399,0.19,0.23,0.87,2
400,0.2,0.14,0.93,2
401,0.14,0.21,0.98,2
402,0.21,0.17,1.03,2
403,0.18,0.21,1.03,2
404,0.22,0.19,0.99,2
405,0.22,0.16,0.95,2
406,0.25,0.18,0.92,2
407,0.22,0.17,0.93,2
408,0.23,0.17,0.96,2
409,0.21,0.17,0.96,2
410,0.22,0.17,0.96,2
411,0.21,0.17,0.97,2
412,0.22,0.17,0.97,2
413,0.23,0.16,0.97,2
414,0.21,0.17,0.96,2
415,0.22,0.18,0.97,2
416,0.23,0.16,0.96,2
417,0.21,0.18,0.96,2
418,0.25,0.17,0.96,2
419,0.22,0.16,0.96,2
420,0.22,0.16,0.96,2
421,0.24,0.17,0.97,2
422,0.22,0.16,0.97,2
423,0.21,0.16,0.96,2
424,0.22,0.17,0.97,2
425,0.21,0.16,0.96,0
426,0.22,0.16,0.96,0
427,0.22,0.17,0.97,0
428,0.22,0.16,0.97,0
429,0.22,0.16,0.96,0
430,0.22,0.16,0.96,0
431,0.22,0.16,0.96,0
432,0.22,0.16,0.96,0
433,0.22,0.17,0.96,0
434,0.22,0.16,0.97,0
435,0.23,0.15,0.97,0
436,0.21,0.16,0.97,0
437,0.22,0.16,0.97,0
438,0.22,0.16,0.96,0
439,0.22,0.15,0.97,0
440,0.22,0.15,0.96,0
441,0.22,0.15,0.97,0
442,0.22,0.16,0.97,0
443,0.22,0.15,0.96,0
444,0.22,0.15,0.97,0
445,0.22,0.14,0.97,0
446,0.22,0.15,0.97,0
447,0.22,0.16,0.97,0
448,0.22,0.15,0.97,0
449,0.22,0.14,0.96,0
450,0.22,0.14,0.97,0
451,0.22,0.14,0.97,0
452,0.22,0.14,0.97,0
453,0.22,0.14,0.97,0
454,0.22,0.14,0.97,0
455,0.22,0.14,0.96,0
456,0.22,0.14,0.97,0
457,0.22,0.14,0.97,0
458,0.22,0.14,0.97,0
459,0.22,0.14,0.97,0
460,0.22,0.14,0.97,0
461,0.22,0.14,0.97,0
462,0.22,0.14,0.97,0
463,0.22,0.14,0.96,0
464,0.22,0.14,0.97,0
465,0.22,0.14,0.96,0
466,0.22,0.14,0.96,0
467,0.22,0.14,0.97,0
468,0.22,0.14,0.97,0
469,0.22,0.14,0.97,0
470,0.23,0.14,0.97,0
471,0.22,0.14,0.97,0
472,0.23,0.14,0.97,0
473,0.22,0.14,0.97,0
474,0.22,0.14,0.97,0
475,0.22,0.14,0.97,0
476,0.22,0.14,0.96,0
477,0.23,0.14,0.97,0
478,0.22,0.14,0.96,0
479,0.23,0.14,0.97,0
480,0.22,0.14,0.97,0
481,0.22,0.13,0.97,0
482,0.23,0.14,0.97,0
483,0.22,0.13,0.96,0
484,0.22,0.13,0.97,0
485,0.22,0.13,0.96,0
486,0.22,0.13,0.97,0
487,0.22,0.13,0.97,0
488,0.22,0.13,0.97,0
489,0.22,0.13,0.97,0
490,0.22,0.13,0.97,0
491,0.22,0.13,0.97,0
492,0.23,0.13,0.97,0
493,0.22,0.13,0.96,0
494,0.23,0.13,0.97,0
495,0.22,0.13,0.97,0
496,0.22,0.13,0.96,0
497,0.22,0.12,0.97,0
498,0.22,0.12,0.97,0
499,0.22,0.12,0.97,0
500,0.23,0.13,0.97,0
501,0.22,0.13,0.97,0
502,0.22,0.13,0.97,0
503,0.22,0.12,0.97,0
504,0.22,0.13,0.97,0
505,0.22,0.13,0.97,0
506,0.22,0.12,0.97,0
507,0.22,0.12,0.97,0
508,0.22,0.13,0.97,0
509,0.22,0.12,0.97,0
510,0.22,0.12,0.97,0
511,0.22,0.12,0.97,0
512,0.22,0.12,0.97,0
513,0.22,0.12,0.96,0
514,0.22,0.12,0.97,0
515,0.22,0.12,0.97,0
516,0.22,0.12,0.97,0
517,0.22,0.12,0.97,0
518,0.22,0.12,0.97,0
519,0.22,0.13,0.96,0
520,0.22,0.12,0.97,0
521,0.22,0.12,0.96,0
522,0.22,0.12,0.97,0
523,0.22,0.12,0.97,0
524,0.22,0.12,0.97,0
525,0.22,0.12,0.97,0
526,0.22,0.12,0.97,0
527,0.22,0.12,0.96,0
528,0.22,0.13,0.97,0
529,0.22,0.12,0.97,0
530,0.22,0.12,0.97,0
531,0.22,0.12,0.97,0
532,0.22,0.12,0.96,0
533,0.22,0.12,0.97,0
534,0.21,0.12,0.97,0
535,0.22,0.12,0.97,0
536,0.23,0.13,0.97,0
537,0.22,0.12,0.96,0
538,0.21,0.12,0.96,0
539,0.22,0.13,0.97,0
540,0.21,0.11,0.96,0
541,0.22,0.13,0.97,0
542,0.21,0.11,0.97,0
543,0.24,0.13,0.97,0
544,0.21,0.11,0.97,0
545,0.22,0.12,0.97,0
546,0.21,0.12,0.97,0
547,0.21,0.12,0.96,0
548,0.21,0.12,0.96,0
549,0.21,0.12,0.97,0
550,0.2,0.14,0.97,0
551,0.21,0.11,0.99,0
552,0.17,0.14,0.97,0
553,0.21,0.11,0.96,0
554,0.18,0.14,0.96,0
555,0.2,0.12,0.98,0
556,0.19,0.15,0.98,0
557,0.18,0.11,0.97,0
558,0.21,0.13,1.0,0
559,0.23,0.14,0.99,0
560,0.25,0.12,0.97,0
561,0.21,0.14,0.93,0
562,0.22,0.16,0.94,0
563,0.22,0.14,0.96,0
564,0.21,0.14,0.97,0
565,0.23,0.14,0.97,0
566,0.21,0.13,0.97,0
567,0.21,0.13,0.97,0
568,0.22,0.13,0.97,0
569,0.23,0.14,0.97,0
570,0.22,0.14,0.97,0
571,0.23,0.13,0.97,0
572,0.22,0.13,0.96,0
573,0.22,0.13,0.96,0
574,0.23,0.12,0.96,0
575,0.22,0.12,0.97,2
576,0.22,0.12,0.97,2
577,0.22,0.12,0.97,2
578,0.22,0.12,0.97,2
579,0.22,0.12,0.96,2
580,0.22,0.12,0.97,2
581,0.23,0.12,0.96,2
582,0.22,0.12,0.97,2
583,0.22,0.12,0.97,2
584,0.22,0.12,0.97,2
585,0.22,0.12,0.97,2
586,0.22,0.11,0.97,2
587,0.22,0.13,0.97,2
588,0.22,0.13,0.96,2
589,0.22,0.12,0.96,2
590,0.22,0.13,0.96,2
591,0.21,0.16,0.95,2
592,0.24,0.13,0.95,2
593,0.23,0.14,0.96,2
594,0.21,0.17,0.9,2
595,0.21,0.3,0.76,2
596,0.21,0.46,0.75,2
597,0.09,0.55,0.89,2
598,0.13,0.57,1.08,2
599,0.28,0.5,1.34,2
600,0.09,0.48,1.6,2
601,0.21,0.41,1.83,2
602,0.42,0.3,2.02,2
603,0.52,0.22,1.94,2
604,0.97,-0.04,1.77,2
605,0.98,-0.18,1.28,2
606,1.19,-0.24,0.76,2
607,0.99,-0.19,0.37,2
608,0.64,-0.14,0.1,2
609,0.46,-0.08,-0.01,2
610,0.16,0.03,-0.1,2
611,0.0,0.06,-0.1,2
612,-0.15,0.17,0.01,2
613,-0.24,0.27,0.27,2
614,-0.33,0.48,0.6,2
615,-0.51,0.63,0.75,2
616,-0.24,0.71,1.03,2
617,-0.29,0.57,0.99,2
618,0.2,0.54,1.16,2
619,0.07,0.53,1.47,2
620,0.05,0.49,1.52,2
621,0.56,0.34,1.76,2
622,0.17,0.14,1.58,2
623,0.62,-0.01,1.41,2
624,0.44,-0.25,1.11,2
625,0.46,-0.18,1.0,2
626,0.39,-0.12,0.97,2
627,0.19,-0.02,0.95,2
628,0.32,0.07,0.95,2
629,0.29,0.14,0.94,2
630,0.28,0.18,0.96,2
631,0.27,0.23,0.97,2
632,0.21,0.21,0.97,2
633,0.3,0.2,0.97,2
634,0.23,0.2,0.96,2
635,0.22,0.19,0.97,2
636,0.26,0.18,0.96,2
637,0.23,0.17,0.95,2
638,0.26,0.15,0.92,2
639,0.27,0.15,0.96,2
640,0.26,0.17,0.97,2
641,0.27,0.16,0.96,2
642,0.26,0.17,0.96,2
643,0.3,0.16,0.95,2
644,0.24,0.17,0.94,2
645,0.29,0.16,0.97,2
646,0.27,0.13,0.95,2
647,0.21,0.18,0.96,2
648,0.23,0.16,0.95,2
649,0.2,0.18,0.95,2
650,0.25,0.14,0.97,2
651,0.29,0.16,1.0,2
652,0.23,0.14,1.01,2
653,0.24,0.2,0.97,2
654,0.28,0.13,0.88,2
655,0.21,0.2,0.94,2
656,0.27,0.15,0.97,2
657,0.22,0.16,0.95,2
658,0.22,0.14,0.97,2
659,0.27,0.15,1.0,2
660,0.27,0.18,0.98,2
661,0.28,0.17,0.95,2
662,0.32,0.17,0.94,2
663,0.28,0.15,0.93,2
664,0.32,0.14,0.94,2
665,0.32,0.15,0.95,2
666,0.33,0.14,0.95,2
667,0.29,0.13,0.96,2
668,0.3,0.14,0.96,2
669,0.29,0.14,0.96,2
670,0.29,0.13,0.96,2
671,0.3,0.14,0.95,2
672,0.28,0.13,0.96,2
673,0.3,0.13,0.96,2
674,0.28,0.13,0.95,2
675,0.28,0.13,0.96,0
676,0.29,0.14,0.96,0
677,0.28,0.13,0.95,0
678,0.27,0.13,0.96,0
679,0.28,0.13,0.96,0
680,0.29,0.13,0.95,0
681,0.28,0.12,0.96,0
682,0.28,0.12,0.95,0
683,0.29,0.12,0.95,0
684,0.28,0.11,0.95,0
685,0.28,0.11,0.95,0
686,0.3,0.11,0.95,0
687,0.29,0.11,0.97,0
688,0.29,0.11,0.96,0
689,0.3,0.11,0.95,0
690,0.29,0.1,0.96,0
691,0.29,0.11,0.95,0
692,0.31,0.11,0.95,0
693,0.3,0.11,0.96,0
694,0.29,0.1,0.95,0
695,0.29,0.1,0.96,0
696,0.3,0.11,0.96,0
697,0.3,0.1,0.96,0
698,0.29,0.1,0.96,0
699,0.29,0.11,0.95,0
700,0.32,0.11,0.95,0
701,0.31,0.1,0.96,0
702,0.29,0.11,0.96,0
703,0.28,0.11,0.96,0
704,0.3,0.11,0.96,0
705,0.29,0.11,0.96,0
706,0.3,0.1,0.95,0
707,0.28,0.1,0.95,0
708,0.29,0.1,0.95,0
709,0.29,0.1,0.96,0
710,0.29,0.11,0.96,0
711,0.28,0.1,0.96,0
712,0.28,0.1,0.96,0
713,0.27,0.11,0.96,0
714,0.29,0.1,0.96,0
715,0.27,0.1,0.97,0
716,0.28,0.1,0.96,0
717,0.27,0.1,0.96,0
718,0.28,0.1,0.96,0
719,0.28,0.1,0.96,0
720,0.28,0.1,0.96,0
721,0.27,0.1,0.96,0
722,0.27,0.1,0.96,0
723,0.27,0.1,0.97,0
724,0.27,0.1,0.96,0
725,0.28,0.1,0.96,0
726,0.27,0.1,0.96,0
727,0.27,0.1,0.96,0
728,0.27,0.1,0.96,0
729,0.27,0.1,0.97,0
730,0.27,0.1,0.97,0
731,0.27,0.1,0.97,0
732,0.27,0.1,0.97,0
733,0.26,0.1,0.96,0
734,0.27,0.1,0.96,0
735,0.27,0.1,0.95,0
736,0.27,0.1,0.96,0
737,0.27,0.1,0.97,0
738,0.26,0.1,0.97,0
739,0.27,0.1,0.96,0
740,0.27,0.11,0.96,0
741,0.28,0.1,0.97,0
742,0.27,0.11,0.96,0
743,0.27,0.11,0.97,0
744,0.27,0.1,0.96,0
745,0.27,0.1,0.95,0
746,0.28,0.1,0.96,0
747,0.27,0.1,0.96,0
748,0.27,0.1,0.96,0
749,0.27,0.1,0.96,0
750,0.28,0.1,0.96,0
751,0.27,0.1,0.96,0
752,0.27,0.1,0.96,0
753,0.27,0.1,0.96,0
754,0.28,0.1,0.96,0
755,0.27,0.1,0.96,0
756,0.28,0.1,0.96,0
757,0.27,0.1,0.96,0
758,0.28,0.1,0.96,0
759,0.27,0.1,0.96,0
760,0.27,0.1,0.96,0
761,0.28,0.1,0.96,0
762,0.28,0.1,0.96,0
763,0.27,0.1,0.96,0
764,0.28,0.1,0.96,0
765,0.28,0.1,0.96,0
766,0.28,0.11,0.96,0
767,0.27,0.1,0.96,0
768,0.28,0.1,0.96,0
769,0.28,0.1,0.96,0
770,0.28,0.1,0.96,0
771,0.27,0.1,0.96,0
772,0.27,0.1,0.97,0
773,0.28,0.1,0.96,0
774,0.27,0.1,0.96,0
775,0.28,0.11,0.96,0
776,0.27,0.11,0.96,0
777,0.28,0.11,0.96,0
778,0.28,0.1,0.96,0
779,0.28,0.11,0.96,0
780,0.28,0.1,0.96,0
781,0.28,0.1,0.96,0
782,0.28,0.1,0.96,0
783,0.28,0.1,0.96,0
784,0.28,0.1,0.96,0
785,0.3,0.1,0.97,0
786,0.27,0.1,0.96,0
787,0.28,0.1,0.96,0
788,0.27,0.1,0.95,0
789,0.27,0.1,0.96,0
790,0.27,0.1,0.96,0
791,0.26,0.11,0.97,0
792,0.27,0.1,0.97,0
793,0.27,0.1,0.97,0
794,0.26,0.1,0.97,0
795,0.26,0.1,0.96,0
796,0.25,0.1,0.97,0
797,0.26,0.1,0.97,0
798,0.26,0.1,0.97,0
799,0.26,0.1,0.97,0
800,0.26,0.1,0.97,0
801,0.26,0.1,0.96,0
802,0.26,0.1,0.96,0
803,0.26,0.1,0.96,0
804,0.26,0.1,0.96,0
805,0.27,0.1,0.97,0
806,0.25,0.11,0.96,0
807,0.26,0.1,0.97,0
808,0.27,0.1,0.97,0
809,0.26,0.1,0.96,0
810,0.27,0.1,0.96,0
811,0.27,0.1,0.97,0
812,0.27,0.1,0.96,0
813,0.27,0.11,0.96,0
814,0.26,0.11,0.96,0
815,0.26,0.11,0.96,0
816,0.27,0.1,0.96,0
817,0.26,0.11,0.96,0
818,0.27,0.11,0.96,0
819,0.3,0.06,0.96,0
820,0.27,0.1,0.96,0
821,0.29,0.1,0.96,0
822,0.28,0.1,0.96,0
823,0.28,0.1,0.96,0
824,0.29,0.1,0.96,0
825,0.28,0.1,0.96,0
826,0.28,0.1,0.97,0
827,0.28,0.1,0.96,0
828,0.28,0.1,0.96,0
829,0.29,0.1,0.96,0
830,0.28,0.1,0.95,0
831,0.29,0.1,0.96,0
832,0.29,0.1,0.96,0
833,0.3,0.1,0.96,0
834,0.28,0.1,0.96,0
835,0.27,0.1,0.96,0
836,0.28,0.1,0.96,0
837,0.28,0.1,0.96,0
838,0.28,0.1,0.96,0
839,0.27,0.11,0.96,0
840,0.27,0.1,0.97,0
841,0.26,0.09,0.97,0
842,0.26,0.1,0.97,0
843,0.26,0.1,0.97,0
844,0.27,0.1,0.97,0
845,0.24,0.1,0.97,0
846,0.28,0.08,0.97,0
847,0.24,0.1,0.96,0
848,0.26,0.1,0.96,0
849,0.26,0.1,0.96,0
850,0.25,0.1,0.96,0
851,0.24,0.1,0.97,0
852,0.26,0.1,0.97,0
853,0.26,0.1,0.97,0
854,0.25,0.1,0.97,0
855,0.26,0.1,0.96,0
856,0.25,0.1,0.97,0
857,0.26,0.1,0.97,0
858,0.24,0.1,0.97,0
859,0.26,0.1,0.97,0
860,0.26,0.09,0.96,0
861,0.24,0.1,0.96,0
862,0.24,0.1,0.97,0
863,0.24,0.1,0.96,0
864,0.25,0.09,0.97,0
865,0.24,0.1,0.97,0
866,0.25,0.09,0.97,0
867,0.22,0.1,0.97,0
868,0.25,0.1,0.97,0
869,0.24,0.1,0.96,0
870,0.24,0.1,0.97,0
871,0.24,0.1,0.96,0
872,0.25,0.1,0.97,0
873,0.25,0.09,0.97,0
874,0.24,0.09,0.97,0
875,0.24,0.1,0.97,0
876,0.24,0.1,0.96,0
877,0.24,0.1,0.96,0
878,0.25,0.1,0.97,0
879,0.24,0.1,0.96,0
880,0.25,0.1,0.97,0
881,0.24,0.1,0.97,0
882,0.24,0.1,0.97,0
883,0.24,0.1,0.97,0
884,0.24,0.1,0.96,0
885,0.24,0.1,0.97,0
886,0.24,0.08,0.96,0
887,0.23,0.1,0.97,0
888,0.25,0.09,0.97,0
889,0.22,0.09,0.96,0
890,0.21,0.09,0.97,0
891,0.24,0.11,0.97,0
892,0.21,0.08,0.97,0
893,0.22,0.08,0.97,0
894,0.23,0.09,0.97,0
895,0.23,0.08,0.98,0
896,0.21,0.1,0.97,0
897,0.22,0.1,0.98,0
898,0.21,0.1,0.98,0
899,0.23,0.1,0.98,0
900,0.27,0.09,0.96,0
901,0.25,0.1,0.96,0
902,0.27,0.11,0.95,0
903,0.26,0.1,0.95,0
904,0.26,0.11,0.96,0
905,0.27,0.1,0.96,0
906,0.27,0.1,0.96,0
907,0.26,0.11,0.97,0
908,0.26,0.1,0.96,0
909,0.25,0.11,0.96,0
910,0.27,0.1,0.97,0
911,0.27,0.1,0.96,0
912,0.28,0.1,0.97,0
913,0.27,0.1,0.96,0
914,0.26,0.1,0.96,0
915,0.28,0.1,0.96,0
916,0.28,0.1,0.96,0
917,0.27,0.1,0.96,0
918,0.28,0.1,0.97,0
919,0.27,0.1,0.96,0
920,0.28,0.1,0.96,0
921,0.28,0.1,0.96,0
922,0.28,0.1,0.96,0
923,0.27,0.1,0.96,0
924,0.28,0.1,0.96,0
925,0.28,0.1,0.97,2
926,0.28,0.09,0.96,2
927,0.28,0.1,0.96,2
928,0.28,0.1,0.96,2
929,0.27,0.1,0.96,2
930,0.28,0.1,0.96,2
931,0.28,0.1,0.96,2
932,0.28,0.1,0.97,2
933,0.28,0.1,0.96,2
934,0.28,0.1,0.96,2
935,0.27,0.1,0.96,2
936,0.28,0.1,0.96,2
937,0.28,0.1,0.96,2
938,0.28,0.1,0.97,2
939,0.28,0.09,0.96,2
940,0.28,0.1,0.96,2
941,0.28,0.1,0.96,2
942,0.28,0.1,0.96,2
943,0.28,0.1,0.96,2
944,0.28,0.1,0.96,2
945,0.28,0.09,0.96,2
946,0.29,0.09,0.96,2
947,0.28,0.1,0.95,2
948,0.27,0.13,0.93,2
949,0.34,0.1,0.93,2
950,0.35,0.12,0.9,2
951,0.23,0.26,0.82,2
952,0.21,0.41,0.78,2
953,0.21,0.46,0.94,2
954,0.22,0.49,1.12,2
955,0.27,0.48,1.29,2
956,0.22,0.41,1.48,2
957,0.09,0.34,1.61,2
958,0.24,0.25,1.79,2
959,0.4,0.02,1.88,2
960,0.47,-0.07,1.75,2
961,0.98,-0.2,1.46,2
962,0.95,-0.32,0.96,2
963,0.87,-0.4,0.45,2
964,0.63,-0.29,0.09,2
965,0.46,-0.19,-0.08,2
966,0.27,-0.1,-0.19,2
967,0.07,0.04,-0.22,2
968,-0.02,0.14,-0.09,2
969,-0.09,0.32,0.17,2
970,-0.07,0.57,0.59,2
971,-0.2,0.88,1.09,2
972,-0.2,0.81,1.31,2
973,0.28,0.72,1.3,2
974,0.3,0.63,1.64,2
975,0.24,0.5,1.82,2
976,0.73,0.27,1.88,2
977,0.41,-0.05,1.55,2
978,0.74,-0.24,1.25,2
979,0.62,-0.38,0.96,2
980,0.48,-0.32,0.84,2
981,0.4,-0.18,0.83,2
982,0.27,-0.04,0.87,2
983,0.27,0.09,0.91,2
984,0.32,0.12,0.96,2
985,0.32,0.16,0.97,2
986,0.35,0.16,0.98,2
987,0.28,0.13,0.97,2
988,0.23,0.17,0.9,2
989,0.36,0.11,0.97,2
990,0.36,0.08,0.97,2
991,0.34,0.09,0.96,2
992,0.34,0.14,0.96,2
993,0.35,0.16,0.96,2
994,0.35,0.14,0.95,2
995,0.35,0.13,0.94,2
996,0.35,0.13,0.92,2
997,0.35,0.13,0.92,2
998,0.36,0.15,0.93,2
999,0.34,0.13,0.91,2
1000,0.35,0.12,0.91,2
1001,0.35,0.15,0.91,2
1002,0.29,0.15,0.93,2
1003,0.31,0.13,0.97,2
1004,0.34,0.16,0.98,2
1005,0.32,0.14,0.96,2
1006,0.31,0.16,0.97,2
1007,0.3,0.22,0.98,2
1008,0.34,0.12,0.96,2
1009,0.27,0.18,0.87,2
1010,0.38,0.17,0.89,2
1011,0.29,0.16,0.94,2
1012,0.27,0.18,0.96,2
1013,0.28,0.16,0.95,2
1014,0.34,0.12,0.97,2
1015,0.38,0.2,0.97,2
1016,0.35,0.16,0.96,2
1017,0.34,0.17,0.92,2
1018,0.33,0.16,0.9,2
1019,0.35,0.16,0.92,2
1020,0.35,0.15,0.92,2
1021,0.32,0.19,0.92,2
1022,0.42,0.12,0.95,2
1023,0.34,0.17,0.94,2
1024,0.35,0.14,0.94,2
1025,0.36,0.15,0.94,0
1026,0.39,0.15,0.95,0
1027,0.35,0.12,0.96,0
1028,0.34,0.13,0.95,0
1029,0.32,0.14,0.91,0
1030,0.37,0.14,0.92,0
1031,0.35,0.14,0.93,0
1032,0.36,0.13,0.95,0
1033,0.35,0.13,0.94,0
1034,0.35,0.14,0.93,0
1035,0.35,0.12,0.93,0
1036,0.35,0.13,0.94,0
1037,0.35,0.14,0.94,0
1038,0.35,0.12,0.94,0
1039,0.35,0.12,0.94,0
1040,0.35,0.11,0.94,0
1041,0.35,0.12,0.94,0
1042,0.35,0.11,0.94,0
1043,0.35,0.12,0.95,0
1044,0.35,0.11,0.94,0
1045,0.35,0.12,0.95,0
1046,0.33,0.12,0.94,0
1047,0.34,0.11,0.94,0
1048,0.34,0.11,0.94,0
1049,0.35,0.11,0.94,0
1050,0.35,0.12,0.94,0
1051,0.32,0.15,0.95,0
1052,0.34,0.12,0.95,0
1053,0.33,0.12,0.95,0
1054,0.35,0.11,0.94,0
1055,0.36,0.11,0.94,0
1056,0.35,0.11,0.95,0
1057,0.35,0.11,0.95,0
1058,0.32,0.11,0.89,0
1059,0.35,0.12,0.94,0
1060,0.36,0.11,0.96,0
1061,0.33,0.11,0.94,0
1062,0.35,0.11,0.94,0
1063,0.36,0.11,0.94,0
1064,0.35,0.11,0.95,0
1065,0.35,0.12,0.95,0
1066,0.35,0.11,0.94,0
1067,0.35,0.11,0.93,0
1068,0.35,0.11,0.94,0
1069,0.36,0.11,0.94,0
1070,0.36,0.11,0.94,0
1071,0.36,0.11,0.94,0
1072,0.35,0.11,0.94,0
1073,0.36,0.11,0.95,0
1074,0.36,0.11,0.93,0
1075,0.35,0.11,0.93,0
1076,0.36,0.11,0.95,0
1077,0.36,0.11,0.95,0
1078,0.36,0.11,0.94,0
1079,0.36,0.11,0.95,0
1080,0.36,0.11,0.95,0
1081,0.35,0.11,0.93,0
1082,0.36,0.11,0.92,0
1083,0.35,0.11,0.93,0
1084,0.35,0.11,0.93,0
1085,0.35,0.11,0.94,0
1086,0.35,0.11,0.94,0
1087,0.35,0.13,0.94,0
1088,0.35,0.13,0.94,0
1089,0.35,0.13,0.95,0
1090,0.35,0.12,0.93,0
1091,0.35,0.12,0.93,0
1092,0.35,0.12,0.94,0
1093,0.35,0.12,0.94,0
1094,0.35,0.11,0.94,0
1095,0.35,0.11,0.94,0
1096,0.35,0.12,0.94,0
1097,0.35,0.12,0.94,0
1098,0.35,0.11,0.94,0
1099,0.35,0.11,0.94,0
1100,0.35,0.12,0.94,0
1101,0.35,0.12,0.94,0
1102,0.35,0.11,0.93,0
1103,0.35,0.12,0.94,0
1104,0.35,0.11,0.94,0
1105,0.35,0.11,0.93,0
1106,0.35,0.11,0.94,0
1107,0.35,0.12,0.95,0
1108,0.35,0.11,0.95,0
1109,0.35,0.11,0.94,0
1110,0.35,0.11,0.94,0
1111,0.35,0.11,0.94,0
1112,0.35,0.11,0.93,0
1113,0.35,0.11,0.94,0
1114,0.35,0.11,0.94,0
1115,0.35,0.11,0.94,0
1116,0.35,0.11,0.95,0
1117,0.35,0.11,0.94,0
1118,0.36,0.11,0.94,0
1119,0.35,0.11,0.94,0
1120,0.35,0.11,0.94,0
1121,0.35,0.11,0.93,0
1122,0.35,0.11,0.94,0
1123,0.35,0.11,0.94,0
1124,0.35,0.11,0.94,0
1125,0.35,0.11,0.94,0
1126,0.35,0.11,0.94,0
1127,0.36,0.11,0.94,0
1128,0.35,0.11,0.93,0
1129,0.35,0.11,0.94,0
1130,0.36,0.11,0.94,0
1131,0.35,0.11,0.94,0
1132,0.35,0.11,0.94,0
1133,0.35,0.1,0.93,0
1134,0.35,0.11,0.94,0
1135,0.36,0.11,0.93,0
1136,0.36,0.11,0.93,0
1137,0.36,0.11,0.94,0
1138,0.38,0.12,0.97,0
1139,0.34,0.14,0.99,0
1140,0.39,0.13,0.95,0
1141,0.33,0.13,0.89,0
1142,0.35,0.12,0.88,0
1143,0.36,0.1,0.9,0
1144,0.35,0.09,0.94,0
1145,0.35,0.07,0.94,0
1146,0.37,0.06,0.94,0
1147,0.37,0.09,0.95,0
1148,0.37,0.09,0.94,0
1149,0.36,0.1,0.94,0
1150,0.37,0.11,0.95,0
1151,0.37,0.11,0.94,0
1152,0.36,0.11,0.95,0
1153,0.35,0.12,0.96,0
1154,0.35,0.11,0.95,0
1155,0.35,0.1,0.93,0
1156,0.35,0.09,0.92,0
1157,0.36,0.08,0.92,0
1158,0.36,0.09,0.93,0
1159,0.36,0.09,0.94,0
1160,0.36,0.09,0.94,0
1161,0.36,0.09,0.93,0
1162,0.37,0.1,0.94,0
1163,0.36,0.11,0.93,0
1164,0.36,0.11,0.94,0
1165,0.36,0.11,0.94,0
1166,0.36,0.12,0.94,0
1167,0.35,0.14,0.95,0
1168,0.35,0.15,0.94,0
1169,0.35,0.15,0.94,0
1170,0.34,0.13,0.94,0
1171,0.35,0.11,0.94,0
1172,0.35,0.1,0.93,0
1173,0.35,0.1,0.9,0
1174,0.35,0.11,0.91,0
1175,0.36,0.12,0.94,0
1176,0.36,0.11,0.96,0
1177,0.36,0.11,0.95,0
1178,0.35,0.11,0.95,0
1179,0.36,0.11,0.95,0
1180,0.36,0.11,0.94,0
1181,0.35,0.11,0.93,0
1182,0.35,0.11,0.93,0
1183,0.36,0.11,0.94,0
1184,0.36,0.11,0.93,0
1185,0.31,0.11,0.95,0
1186,0.35,0.09,0.94,0
1187,0.3,0.1,0.94,0
1188,0.34,0.1,0.97,0
1189,0.32,0.05,0.95,0
1190,0.29,0.11,0.95,0
1191,0.35,0.09,0.95,0
1192,0.3,0.1,0.96,0
1193,0.33,0.11,0.97,0
1194,0.31,0.1,0.97,0
1195,0.31,0.08,0.98,0
1196,0.36,0.13,0.96,0
1197,0.36,0.09,0.92,0
1198,0.32,0.1,0.91,0
1199,0.36,0.11,0.93,0
1200,0.35,0.1,0.93,0
1201,0.35,0.11,0.93,0
1202,0.37,0.11,0.94,0
1203,0.36,0.11,0.95,0
1204,0.36,0.11,0.95,0
1205,0.36,0.1,0.95,0
1206,0.35,0.11,0.94,0
1207,0.37,0.11,0.93,0
1208,0.36,0.11,0.93,0
1209,0.35,0.1,0.92,0
1210,0.36,0.1,0.93,0
1211,0.36,0.1,0.94,0
1212,0.35,0.1,0.94,0
1213,0.36,0.1,0.95,0
1214,0.35,0.1,0.94,0
1215,0.35,0.1,0.94,0
1216,0.36,0.11,0.94,0
1217,0.35,0.1,0.93,0
1218,0.35,0.1,0.94,0
1219,0.36,0.1,0.94,0
1220,0.35,0.1,0.95,0
1221,0.36,0.1,0.94,0
1222,0.35,0.1,0.94,0
1223,0.35,0.1,0.93,0
1224,0.35,0.1,0.94,0
1225,0.36,0.1,0.94,2
1226,0.35,0.1,0.94,2
1227,0.35,0.1,0.94,2
1228,0.35,0.1,0.94,2
1229,0.35,0.1,0.94,2
1230,0.35,0.1,0.94,2
1231,0.35,0.1,0.95,2
1232,0.35,0.1,0.94,2
1233,0.35,0.1,0.94,2
1234,0.35,0.11,0.94,2
1235,0.35,0.1,0.95,2
1236,0.35,0.1,0.94,2
1237,0.35,0.1,0.94,2
1238,0.35,0.1,0.95,2
1239,0.35,0.1,0.94,2
1240,0.35,0.1,0.94,2
1241,0.34,0.1,0.93,2
1242,0.35,0.1,0.94,2
1243,0.35,0.11,0.94,2
1244,0.35,0.1,0.93,2
1245,0.36,0.11,0.93,2
1246,0.35,0.14,0.89,2
1247,0.27,0.31,0.76,2
1248,0.24,0.47,0.75,2
1249,0.21,0.51,0.85,2
1250,0.25,0.52,1.03,2
1251,0.31,0.48,1.38,2
1252,0.22,0.38,1.74,2
1253,0.53,0.36,2.01,2
1254,0.85,0.12,1.98,2
1255,0.94,-0.02,1.73,2
1256,1.24,-0.23,1.29,2
1257,1.4,-0.24,0.77,2
1258,1.23,-0.24,0.26,2
1259,0.89,-0.12,0.01,2
1260,0.39,0.01,-0.14,2
1261,0.16,0.11,-0.22,2
1262,0.04,0.25,-0.2,2
1263,0.02,0.41,0.0,2
1264,-0.1,0.78,0.34,2
1265,-0.1,0.95,0.81,2
1266,0.02,1.01,1.12,2
1267,0.36,0.89,1.42,2
1268,0.66,0.7,1.65,2
1269,0.65,0.49,1.87,2
1270,0.56,0.31,1.77,2
1271,0.66,0.04,1.53,2
1272,0.47,-0.04,1.14,2
1273,0.72,-0.12,0.94,2
1274,0.48,-0.08,0.8,2
1275,0.52,-0.04,0.85,2
1276,0.42,0.07,0.86,2
1277,0.4,0.14,0.88,2
1278,0.36,0.22,0.87,2
1279,0.35,0.24,0.87,2
1280,0.36,0.25,0.88,2
1281,0.38,0.25,0.89,2
1282,0.36,0.24,0.91,2
1283,0.4,0.23,0.93,2
1284,0.38,0.23,0.91,2
1285,0.37,0.24,0.91,2
1286,0.4,0.23,0.88,2
1287,0.41,0.23,0.89,2
1288,0.38,0.24,0.9,2
1289,0.42,0.22,0.9,2
1290,0.41,0.22,0.9,2
1291,0.42,0.22,0.89,2
1292,0.41,0.23,0.88,2
1293,0.4,0.22,0.88,2
1294,0.42,0.2,0.87,2
1295,0.36,0.2,0.91,2
1296,0.42,0.19,0.94,2
1297,0.36,0.18,0.94,2
1298,0.41,0.22,0.94,2
1299,0.33,0.19,0.94,2
1300,0.38,0.21,0.94,2
1301,0.35,0.21,0.94,2
1302,0.39,0.14,0.87,2
1303,0.38,0.2,0.91,2
1304,0.42,0.22,0.86,2
1305,0.35,0.16,0.89,2
1306,0.35,0.21,0.86,2
1307,0.36,0.19,0.89,2
1308,0.41,0.21,0.96,2
1309,0.33,0.21,0.98,2
1310,0.43,0.17,0.93,2
1311,0.41,0.19,0.88,2
1312,0.42,0.19,0.88,2
1313,0.43,0.2,0.88,2
1314,0.45,0.18,0.9,2
1315,0.44,0.21,0.91,2
1316,0.44,0.19,0.89,2
1317,0.44,0.2,0.9,2
1318,0.43,0.2,0.88,2
1319,0.43,0.19,0.88,2
1320,0.44,0.19,0.9,2
1321,0.44,0.19,0.88,2
1322,0.42,0.18,0.88,2
1323,0.42,0.18,0.89,2
1324,0.44,0.18,0.9,2
1325,0.42,0.17,0.89,0
1326,0.43,0.17,0.9,0
1327,0.43,0.18,0.89,0
1328,0.43,0.17,0.89,0
1329,0.44,0.18,0.89,0
1330,0.42,0.17,0.88,0
1331,0.44,0.17,0.9,0
1332,0.45,0.17,0.91,0
1333,0.44,0.17,0.89,0
1334,0.43,0.17,0.89,0
1335,0.44,0.17,0.9,0
1336,0.45,0.16,0.9,0
1337,0.43,0.17,0.88,0
1338,0.45,0.17,0.89,0
1339,0.44,0.18,0.89,0
1340,0.44,0.17,0.89,0
1341,0.44,0.17,0.89,0
1342,0.45,0.17,0.89,0
1343,0.44,0.18,0.89,0
1344,0.44,0.17,0.89,0
1345,0.44,0.17,0.89,0
1346,0.44,0.17,0.89,0
1347,0.44,0.17,0.89,0
1348,0.43,0.17,0.89,0
1349,0.44,0.17,0.89,0
1350,0.44,0.17,0.89,0
1351,0.44,0.17,0.9,0
1352,0.44,0.17,0.89,0
1353,0.43,0.16,0.89,0
1354,0.44,0.16,0.89,0
1355,0.44,0.17,0.89,0
1356,0.45,0.15,0.9,0
1357,0.44,0.16,0.9,0
1358,0.44,0.16,0.89,0
1359,0.44,0.16,0.89,0
1360,0.45,0.16,0.89,0
1361,0.44,0.16,0.89,0
1362,0.43,0.17,0.89,0
1363,0.45,0.16,0.89,0
1364,0.44,0.16,0.89,0
1365,0.44,0.16,0.89,0
1366,0.44,0.16,0.89,0
1367,0.45,0.16,0.89,0
1368,0.43,0.17,0.89,0
1369,0.44,0.18,0.88,0
1370,0.46,0.14,0.89,0
1371,0.45,0.14,0.88,0
1372,0.45,0.16,0.88,0
1373,0.45,0.15,0.89,0
1374,0.45,0.15,0.88,0
1375,0.46,0.16,0.88,0
1376,0.45,0.16,0.88,0
1377,0.45,0.16,0.89,0
1378,0.45,0.16,0.88,0
1379,0.45,0.15,0.88,0
1380,0.46,0.15,0.88,0
1381,0.45,0.15,0.88,0
1382,0.46,0.15,0.89,0
1383,0.46,0.15,0.89,0
1384,0.46,0.14,0.88,0
1385,0.45,0.14,0.88,0
1386,0.45,0.15,0.89,0
1387,0.45,0.14,0.88,0
1388,0.46,0.14,0.89,0
1389,0.45,0.15,0.89,0
1390,0.45,0.14,0.89,0
1391,0.46,0.14,0.88,0
1392,0.46,0.14,0.88,0
1393,0.45,0.15,0.89,0
1394,0.45,0.15,0.89,0
1395,0.46,0.14,0.88,0
1396,0.46,0.15,0.88,0
1397,0.45,0.14,0.88,0
1398,0.45,0.14,0.88,0
1399,0.45,0.14,0.88,0
1400,0.45,0.14,0.88,0
1401,0.46,0.13,0.89,0
1402,0.46,0.13,0.89,0
1403,0.46,0.14,0.88,0
1404,0.45,0.14,0.88,0
1405,0.46,0.13,0.88,0
1406,0.46,0.14,0.89,0
1407,0.46,0.14,0.89,0
1408,0.46,0.13,0.89,0
1409,0.46,0.13,0.89,0
1410,0.45,0.14,0.89,0
1411,0.46,0.13,0.88,0
1412,0.45,0.13,0.87,0
1413,0.46,0.13,0.88,0
1414,0.46,0.13,0.88,0
1415,0.46,0.13,0.88,0
1416,0.46,0.13,0.88,0
1417,0.45,0.13,0.89,0
1418,0.45,0.13,0.89,0
1419,0.46,0.12,0.89,0
1420,0.46,0.13,0.89,0
1421,0.46,0.13,0.89,0
1422,0.45,0.13,0.88,0
1423,0.46,0.13,0.88,0
1424,0.45,0.13,0.89,0
1425,0.45,0.12,0.88,0
1426,0.46,0.12,0.88,0
1427,0.45,0.13,0.89,0
1428,0.46,0.12,0.89,0
1429,0.46,0.12,0.89,0
1430,0.45,0.13,0.89,0
1431,0.46,0.12,0.88,0
1432,0.46,0.13,0.88,0
1433,0.46,0.13,0.89,0
1434,0.46,0.13,0.89,0
1435,0.45,0.13,0.89,0
1436,0.45,0.13,0.88,0
1437,0.46,0.13,0.88,0
1438,0.46,0.13,0.89,0
1439,0.46,0.13,0.88,0
1440,0.45,0.13,0.88,0
1441,0.46,0.12,0.89,0
1442,0.45,0.13,0.89,0
1443,0.46,0.12,0.89,0
1444,0.46,0.12,0.89,0
1445,0.46,0.13,0.88,0
1446,0.46,0.13,0.89,0
1447,0.46,0.13,0.88,0
1448,0.45,0.13,0.88,0
1449,0.46,0.13,0.89,0
1450,0.46,0.13,0.89,0
1451,0.46,0.13,0.89,0
1452,0.45,0.12,0.88,0
1453,0.46,0.13,0.89,0
1454,0.46,0.13,0.89,0
1455,0.46,0.12,0.88,0
1456,0.45,0.12,0.88,0
1457,0.46,0.12,0.88,0
1458,0.45,0.12,0.88,0
1459,0.46,0.12,0.88,0
1460,0.46,0.13,0.89,0
1461,0.46,0.12,0.89,0
1462,0.46,0.12,0.89,0
1463,0.46,0.12,0.88,0
1464,0.46,0.12,0.88,0
1465,0.46,0.13,0.88,0
1466,0.46,0.13,0.88,0
1467,0.46,0.13,0.89,0
1468,0.46,0.13,0.89,0
1469,0.46,0.13,0.89,0
1470,0.46,0.13,0.89,0
1471,0.46,0.12,0.89,0
1472,0.46,0.13,0.88,0
1473,0.46,0.12,0.88,0
1474,0.46,0.12,0.87,0
1475,0.46,0.11,0.88,0
1476,0.46,0.12,0.88,0
1477,0.46,0.13,0.89,0
1478,0.46,0.12,0.89,0
1479,0.46,0.12,0.89,0
1480,0.45,0.13,0.88,0
1481,0.46,0.13,0.88,0
1482,0.45,0.13,0.88,0
1483,0.44,0.12,0.88,0
1484,0.44,0.14,0.88,0
1485,0.44,0.12,0.88,0
1486,0.43,0.13,0.9,0
1487,0.43,0.15,0.93,0
1488,0.45,0.11,0.93,0
1489,0.37,0.15,0.92,0
1490,0.45,0.12,0.9,0
1491,0.39,0.12,0.9,0
1492,0.38,0.12,0.91,0
1493,0.41,0.14,0.92,0
1494,0.38,0.13,0.93,0
1495,0.46,0.12,0.9,0
1496,0.46,0.14,0.9,0
1497,0.42,0.13,0.87,0
1498,0.46,0.13,0.88,0
1499,0.46,0.13,0.89,0
1500,0.46,0.12,0.88,0
1501,0.45,0.12,0.88,0
1502,0.44,0.12,0.89,0
1503,0.46,0.12,0.9,0
1504,0.46,0.11,0.89,0
1505,0.46,0.12,0.9,0
1506,0.45,0.12,0.89,0
1507,0.46,0.12,0.88,0
1508,0.46,0.12,0.88,0
1509,0.45,0.12,0.88,0
1510,0.46,0.11,0.88,0
1511,0.45,0.11,0.88,0
1512,0.46,0.11,0.9,0
1513,0.45,0.11,0.89,0
1514,0.45,0.11,0.89,0
1515,0.45,0.12,0.89,0
1516,0.46,0.11,0.89,0
1517,0.45,0.11,0.89,0
1518,0.45,0.11,0.89,0
1519,0.45,0.11,0.89,0
1520,0.45,0.11,0.89,0
1521,0.45,0.12,0.89,0
1522,0.45,0.11,0.89,0
1523,0.45,0.11,0.88,0
1524,0.45,0.11,0.88,0
1525,0.45,0.11,0.89,2
1526,0.45,0.11,0.89,2
1527,0.45,0.11,0.89,2
1528,0.45,0.11,0.9,2
1529,0.45,0.11,0.89,2
1530,0.45,0.11,0.89,2
1531,0.45,0.12,0.89,2
1532,0.46,0.11,0.89,2
1533,0.44,0.12,0.89,2
1534,0.45,0.11,0.9,2
1535,0.45,0.11,0.9,2
1536,0.44,0.11,0.9,2
1537,0.45,0.11,0.88,2
1538,0.45,0.11,0.89,2
1539,0.45,0.11,0.89,2
1540,0.45,0.11,0.89,2
1541,0.45,0.11,0.88,2
1542,0.45,0.11,0.88,2
1543,0.44,0.13,0.87,2
1544,0.45,0.1,0.89,2
1545,0.45,0.08,0.88,2
1546,0.44,0.11,0.84,2
1547,0.43,0.16,0.71,2
1548,0.44,0.23,0.74,2
1549,0.41,0.36,0.85,2
1550,0.36,0.44,0.97,2
1551,0.34,0.47,1.16,2
1552,0.35,0.43,1.37,2
1553,0.34,0.3,1.56,2
1554,0.58,0.23,1.81,2
1555,0.86,0.11,1.86,2
1556,1.01,-0.05,1.57,2
1557,1.21,-0.23,1.18,2
1558,0.99,-0.28,0.74,2
1559,0.89,-0.28,0.45,2
1560,0.66,-0.28,0.18,2
1561,0.43,-0.28,0.05,2
1562,0.32,-0.15,-0.05,2
1563,0.0,-0.02,-0.16,2
1564,0.0,0.03,-0.01,2
1565,-0.2,0.2,0.07,2
1566,0.04,0.29,0.53,2
1567,-0.07,0.52,0.79,2
1568,0.17,0.5,1.06,2
1569,0.22,0.6,1.19,2
1570,0.53,0.48,1.4,2
1571,0.67,0.49,1.38,2
1572,0.82,0.38,1.6,2
1573,0.85,0.3,1.54,2
1574,0.54,0.04,1.39,2
1575,0.62,0.05,1.13,2
1576,0.78,-0.07,0.93,2
1577,0.57,-0.13,0.81,2
1578,0.71,-0.13,0.81,2
1579,0.47,-0.07,0.82,2
1580,0.46,0.09,0.86,2
1581,0.45,0.16,0.86,2
1582,0.42,0.23,0.84,2
1583,0.46,0.23,0.87,2
1584,0.43,0.26,0.87,2
1585,0.46,0.23,0.88,2
1586,0.47,0.23,0.87,2
1587,0.45,0.23,0.87,2
1588,0.46,0.23,0.88,2
1589,0.46,0.24,0.87,2
1590,0.46,0.23,0.87,2
1591,0.46,0.23,0.87,2
1592,0.45,0.23,0.86,2
1593,0.47,0.23,0.85,2
1594,0.47,0.23,0.85,2
1595,0.47,0.21,0.86,2
1596,0.45,0.23,0.84,2
1597,0.47,0.2,0.84,2
1598,0.41,0.24,0.86,2
1599,0.48,0.2,0.87,2
1600,0.41,0.23,0.87,2
1601,0.47,0.2,0.91,2
1602,0.42,0.22,0.88,2
1603,0.44,0.23,0.91,2
1604,0.46,0.23,0.88,2
1605,0.44,0.23,0.92,2
1606,0.46,0.18,0.87,2
1607,0.46,0.21,0.78,2
1608,0.43,0.24,0.81,2
1609,0.48,0.2,0.85,2
1610,0.35,0.22,0.9,2
1611,0.46,0.23,0.92,2
1612,0.37,0.25,0.94,2
1613,0.48,0.18,0.88,2
1614,0.47,0.23,0.84,2
1615,0.48,0.23,0.82,2
1616,0.46,0.21,0.83,2
1617,0.46,0.22,0.84,2
1618,0.46,0.22,0.85,2
1619,0.5,0.23,0.86,2
1620,0.47,0.2,0.87,2
1621,0.47,0.22,0.87,2
1622,0.46,0.21,0.86,2
1623,0.46,0.21,0.85,2
1624,0.46,0.21,0.85,2
1625,0.46,0.21,0.85,0
1626,0.46,0.21,0.87,0
1627,0.47,0.21,0.86,0
1628,0.46,0.2,0.85,0
1629,0.46,0.2,0.86,0
1630,0.47,0.21,0.86,0
1631,0.46,0.2,0.86,0
1632,0.47,0.21,0.86,0
1633,0.46,0.21,0.86,0
1634,0.47,0.21,0.86,0
1635,0.46,0.21,0.86,0
1636,0.47,0.21,0.85,0
1637,0.47,0.2,0.85,0
1638,0.47,0.2,0.86,0
1639,0.46,0.2,0.86,0
1640,0.47,0.2,0.86,0
1641,0.47,0.2,0.86,0
1642,0.48,0.21,0.86,0
1643,0.47,0.2,0.86,0
1644,0.47,0.2,0.86,0
1645,0.44,0.25,0.83,0
1646,0.5,0.22,0.85,0
1647,0.49,0.19,0.86,0
1648,0.47,0.19,0.86,0
1649,0.48,0.2,0.86,0
1650,0.48,0.2,0.86,0
1651,0.47,0.2,0.85,0
1652,0.47,0.21,0.85,0
1653,0.47,0.21,0.85,0
1654,0.47,0.21,0.84,0
1655,0.47,0.2,0.85,0
1656,0.47,0.2,0.86,0
1657,0.48,0.2,0.85,0
1658,0.48,0.2,0.86,0
1659,0.47,0.2,0.86,0
1660,0.49,0.2,0.86,0
1661,0.48,0.2,0.85,0
1662,0.47,0.2,0.85,0
1663,0.48,0.19,0.85,0
1664,0.47,0.2,0.85,0
1665,0.47,0.2,0.85,0
1666,0.48,0.2,0.86,0
1667,0.48,0.2,0.86,0
1668,0.48,0.2,0.86,0
1669,0.47,0.2,0.86,0
1670,0.47,0.2,0.86,0
1671,0.47,0.2,0.85,0
1672,0.48,0.2,0.85,0
1673,0.48,0.19,0.86,0
1674,0.48,0.2,0.86,0
1675,0.47,0.2,0.86,0
1676,0.48,0.19,0.86,0
1677,0.48,0.19,0.85,0
1678,0.48,0.19,0.85,0
1679,0.48,0.19,0.86,0
1680,0.47,0.19,0.86,0
1681,0.47,0.19,0.86,0
1682,0.47,0.19,0.85,0
1683,0.48,0.19,0.86,0
1684,0.48,0.19,0.86,0
1685,0.47,0.19,0.86,0
1686,0.48,0.19,0.86,0
1687,0.48,0.19,0.86,0
1688,0.48,0.19,0.85,0
1689,0.48,0.19,0.86,0
1690,0.47,0.19,0.85,0
1691,0.48,0.19,0.86,0
1692,0.47,0.18,0.86,0
1693,0.47,0.18,0.86,0
1694,0.47,0.19,0.86,0
1695,0.48,0.19,0.86,0
1696,0.48,0.19,0.86,0
1697,0.48,0.18,0.86,0
1698,0.47,0.18,0.86,0
1699,0.48,0.18,0.86,0
1700,0.48,0.19,0.86,0
1701,0.48,0.18,0.86,0
1702,0.48,0.18,0.86,0
1703,0.48,0.18,0.86,0
1704,0.47,0.18,0.85,0
1705,0.48,0.18,0.86,0
1706,0.48,0.18,0.86,0
1707,0.48,0.18,0.86,0
1708,0.48,0.17,0.86,0
1709,0.47,0.17,0.86,0
1710,0.48,0.17,0.86,0
1711,0.47,0.18,0.86,0
1712,0.49,0.18,0.86,0
1713,0.47,0.17,0.85,0
1714,0.48,0.18,0.87,0
1715,0.48,0.18,0.86,0
1716,0.48,0.18,0.86,0
1717,0.48,0.18,0.86,0
1718,0.48,0.17,0.86,0
1719,0.48,0.17,0.85,0
1720,0.47,0.18,0.85,0
1721,0.48,0.18,0.86,0
1722,0.48,0.18,0.86,0
1723,0.47,0.18,0.86,0
1724,0.47,0.18,0.86,0
1725,0.48,0.17,0.86,0
1726,0.48,0.18,0.86,0
1727,0.48,0.18,0.86,0
1728,0.48,0.18,0.86,0
1729,0.48,0.18,0.85,0
1730,0.47,0.18,0.85,0
1731,0.48,0.18,0.86,0
1732,0.49,0.18,0.86,0
1733,0.48,0.18,0.86,0
1734,0.48,0.18,0.86,0
1735,0.48,0.17,0.86,0
1736,0.48,0.18,0.86,0
1737,0.48,0.18,0.86,0
1738,0.48,0.18,0.85,0
1739,0.48,0.18,0.85,0
1740,0.48,0.18,0.86,0
1741,0.48,0.18,0.86,0
1742,0.49,0.17,0.86,0
1743,0.48,0.18,0.86,0
1744,0.48,0.17,0.86,0
1745,0.48,0.18,0.86,0
1746,0.48,0.17,0.86,0
1747,0.48,0.18,0.86,0
1748,0.48,0.18,0.86,0
1749,0.48,0.17,0.86,0
1750,0.48,0.17,0.86,0
1751,0.47,0.16,0.86,0
1752,0.48,0.17,0.86,0
1753,0.48,0.17,0.86,0
1754,0.48,0.17,0.86,0
1755,0.47,0.17,0.86,0
1756,0.48,0.17,0.86,0
1757,0.48,0.17,0.86,0
1758,0.48,0.17,0.86,0
1759,0.48,0.18,0.86,0
1760,0.48,0.17,0.86,0
1761,0.48,0.17,0.86,0
1762,0.47,0.18,0.86,0
1763,0.48,0.17,0.86,0
1764,0.48,0.17,0.85,0
1765,0.48,0.18,0.86,0
1766,0.47,0.17,0.86,0
1767,0.48,0.17,0.86,0
1768,0.48,0.17,0.86,0
1769,0.47,0.17,0.86,0
1770,0.48,0.17,0.86,0
1771,0.48,0.17,0.86,0
1772,0.48,0.17,0.86,0
1773,0.48,0.17,0.86,0
1774,0.47,0.17,0.86,0
1775,0.48,0.17,0.86,0
1776,0.47,0.17,0.86,0
1777,0.49,0.17,0.86,0
1778,0.47,0.16,0.86,0
1779,0.48,0.17,0.86,0
1780,0.48,0.17,0.86,0
1781,0.48,0.17,0.86,0
1782,0.47,0.17,0.86,0
1783,0.47,0.17,0.86,0
1784,0.48,0.16,0.85,0
1785,0.47,0.17,0.87,0
1786,0.47,0.16,0.86,0
1787,0.47,0.18,0.89,0
1788,0.46,0.13,0.88,0
1789,0.49,0.17,0.86,0
1790,0.46,0.16,0.87,0
1791,0.46,0.16,0.86,0
1792,0.47,0.16,0.87,0
1793,0.46,0.15,0.85,0
1794,0.46,0.16,0.89,0
1795,0.46,0.14,0.89,0
1796,0.48,0.15,0.88,0
1797,0.42,0.17,0.86,0
1798,0.46,0.14,0.87,0
1799,0.46,0.15,0.86,0
1800,0.48,0.14,0.89,0
1801,0.45,0.2,0.91,0
1802,0.47,0.16,0.86,0
1803,0.51,0.15,0.86,0
1804,0.48,0.17,0.86,0
1805,0.48,0.17,0.86,0
1806,0.47,0.16,0.86,0
1807,0.47,0.17,0.86,0
1808,0.49,0.16,0.86,0
1809,0.49,0.17,0.86,0
1810,0.48,0.17,0.86,0
1811,0.49,0.17,0.86,0
1812,0.48,0.17,0.86,0
1813,0.48,0.16,0.86,0
1814,0.47,0.16,0.86,0
1815,0.48,0.16,0.86,0
1816,0.48,0.16,0.87,0
1817,0.47,0.15,0.86,0
1818,0.48,0.16,0.86,0
1819,0.48,0.16,0.86,0
1820,0.48,0.17,0.86,0
1821,0.47,0.16,0.86,0
1822,0.48,0.16,0.86,0
1823,0.48,0.16,0.87,0
1824,0.49,0.16,0.86,0
1825,0.47,0.15,0.86,2
1826,0.49,0.16,0.86,2
1827,0.47,0.16,0.86,2
1828,0.48,0.16,0.86,2
1829,0.47,0.15,0.86,2
1830,0.47,0.15,0.86,2
1831,0.48,0.16,0.87,2
1832,0.49,0.15,0.87,2
1833,0.47,0.14,0.86,2
1834,0.47,0.15,0.86,2
1835,0.48,0.16,0.86,2
1836,0.47,0.15,0.86,2
1837,0.47,0.15,0.86,2
1838,0.48,0.15,0.87,2
1839,0.48,0.16,0.86,2
1840,0.47,0.15,0.86,2
1841,0.47,0.14,0.86,2
1842,0.46,0.16,0.85,2
1843,0.5,0.16,0.82,2
1844,0.49,0.19,0.84,2
1845,0.45,0.24,0.78,2
1846,0.36,0.37,0.66,2
1847,0.25,0.47,0.79,2
1848,0.2,0.51,0.96,2
1849,0.43,0.57,1.24,2
1850,0.64,0.5,1.67,2
1851,0.49,0.49,1.89,2
1852,0.98,0.47,1.96,2
1853,0.98,0.18,1.59,2
1854,1.16,-0.02,1.18,2
1855,1.38,-0.12,0.65,2
1856,0.99,-0.23,0.21,2
1857,0.84,-0.31,-0.04,2
1858,0.51,-0.15,-0.13,2
1859,0.23,-0.01,-0.2,2
1860,0.05,0.11,-0.14,2
1861,-0.19,0.27,0.0,2
1862,-0.05,0.42,0.42,2
1863,-0.11,0.64,0.79,2
1864,-0.04,0.58,1.04,2
1865,0.02,0.73,1.14,2
1866,0.39,0.52,1.28,2
1867,0.37,0.55,1.37,2
1868,0.43,0.46,1.55,2
1869,0.74,0.38,1.55,2
1870,0.52,0.12,1.39,2
1871,0.66,0.04,1.16,2
1872,0.73,-0.08,1.01,2
1873,0.59,-0.12,0.94,2
1874,0.65,-0.01,0.9,2
1875,0.48,0.02,0.85,2
1876,0.51,0.08,0.86,2
1877,0.45,0.12,0.86,2
1878,0.43,0.22,0.86,2
1879,0.42,0.27,0.87,2
1880,0.39,0.27,0.88,2
1881,0.45,0.28,0.88,2
1882,0.43,0.26,0.87,2
1883,0.42,0.26,0.88,2
1884,0.44,0.26,0.88,2
1885,0.45,0.26,0.87,2
1886,0.44,0.26,0.86,2
1887,0.46,0.25,0.86,2
1888,0.45,0.25,0.86,2
1889,0.45,0.24,0.86,2
1890,0.46,0.24,0.87,2
1891,0.46,0.23,0.87,2
1892,0.46,0.24,0.86,2
1893,0.46,0.24,0.87,2
1894,0.46,0.23,0.87,2
1895,0.4,0.24,0.82,2
1896,0.46,0.23,0.89,2
1897,0.41,0.23,0.86,2
1898,0.43,0.24,0.9,2
1899,0.41,0.23,0.86,2
1900,0.43,0.25,0.95,2
1901,0.47,0.23,0.95,2
1902,0.42,0.21,0.86,2
1903,0.43,0.24,0.77,2
1904,0.47,0.19,0.82,2
1905,0.43,0.22,0.86,2
1906,0.37,0.24,0.95,2
1907,0.43,0.25,0.93,2
1908,0.43,0.23,0.92,2
1909,0.47,0.21,0.85,2
1910,0.48,0.22,0.85,2
1911,0.44,0.18,0.86,2
1912,0.46,0.22,0.88,2
1913,0.47,0.19,0.88,2
1914,0.46,0.17,0.87,2
1915,0.46,0.15,0.86,2
1916,0.46,0.17,0.88,2
1917,0.46,0.15,0.87,2
1918,0.48,0.13,0.86,2
1919,0.46,0.13,0.85,2
1920,0.46,0.13,0.86,2
1921,0.47,0.13,0.87,2
1922,0.46,0.13,0.89,2
1923,0.47,0.13,0.88,2
1924,0.47,0.13,0.87,2
1925,0.47,0.13,0.88,0
1926,0.47,0.13,0.88,0
1927,0.46,0.13,0.87,0
1928,0.47,0.12,0.88,0
1929,0.47,0.12,0.87,0
1930,0.47,0.12,0.86,0
1931,0.47,0.12,0.86,0
1932,0.46,0.11,0.86,0
1933,0.47,0.12,0.87,0
1934,0.47,0.12,0.87,0
1935,0.47,0.12,0.87,0
1936,0.47,0.12,0.88,0
1937,0.47,0.12,0.87,0
1938,0.47,0.12,0.87,0
1939,0.47,0.12,0.87,0
1940,0.47,0.12,0.86,0
1941,0.47,0.12,0.87,0
1942,0.47,0.12,0.87,0
1943,0.48,0.12,0.88,0
1944,0.47,0.12,0.87,0
1945,0.47,0.12,0.87,0
1946,0.47,0.12,0.87,0
1947,0.47,0.12,0.87,0
1948,0.47,0.12,0.87,0
1949,0.46,0.12,0.87,0
1950,0.47,0.12,0.87,0
1951,0.47,0.12,0.88,0
1952,0.46,0.12,0.87,0
1953,0.47,0.11,0.87,0
1954,0.47,0.11,0.87,0
1955,0.46,0.12,0.86,0
1956,0.47,0.12,0.87,0
1957,0.47,0.12,0.87,0
1958,0.47,0.12,0.87,0
1959,0.47,0.13,0.87,0
1960,0.47,0.13,0.88,0
1961,0.47,0.13,0.87,0
1962,0.47,0.12,0.87,0
1963,0.46,0.12,0.87,0
1964,0.47,0.11,0.86,0
1965,0.47,0.11,0.87,0
1966,0.47,0.12,0.87,0
1967,0.47,0.12,0.87,0
1968,0.47,0.12,0.87,0
1969,0.47,0.11,0.87,0
1970,0.47,0.11,0.87,0
1971,0.47,0.12,0.87,0
1972,0.47,0.12,0.87,0
1973,0.47,0.11,0.87,0
1974,0.47,0.12,0.87,0
1975,0.46,0.11,0.87,0
1976,0.46,0.12,0.87,0
1977,0.46,0.12,0.87,0
1978,0.46,0.11,0.87,0
1979,0.46,0.13,0.89,0
1980,0.46,0.11,0.88,0
1981,0.46,0.11,0.88,0
1982,0.46,0.12,0.89,0
1983,0.46,0.11,0.88,0
1984,0.46,0.11,0.89,0
1985,0.46,0.11,0.88,0
1986,0.46,0.11,0.89,0
1987,0.46,0.11,0.88,0
1988,0.47,0.11,0.88,0
1989,0.46,0.12,0.87,0
1990,0.46,0.11,0.88,0
1991,0.46,0.11,0.87,0
1992,0.45,0.12,0.88,0
1993,0.46,0.11,0.88,0
1994,0.46,0.11,0.88,0
1995,0.46,0.12,0.88,0
1996,0.46,0.11,0.88,0
1997,0.46,0.12,0.89,0
1998,0.46,0.11,0.88,0
1999,0.46,0.12,0.88,0
2000,0.46,0.12,0.88,0
2001,0.46,0.12,0.89,0
2002,0.45,0.12,0.89,0
2003,0.46,0.11,0.88,0
2004,0.46,0.12,0.89,0
2005,0.46,0.12,0.88,0
2006,0.46,0.12,0.88,0
2007,0.45,0.13,0.89,0
2008,0.46,0.12,0.89,0
2009,0.46,0.11,0.89,0
2010,0.45,0.12,0.88,0
2011,0.46,0.12,0.89,0
2012,0.45,0.11,0.88,0
2013,0.46,0.12,0.89,0
2014,0.46,0.11,0.89,0
2015,0.45,0.11,0.88,0
2016,0.46,0.11,0.89,0
2017,0.46,0.11,0.89,0
2018,0.46,0.11,0.89,0
2019,0.46,0.11,0.88,0
2020,0.46,0.11,0.89,0
2021,0.46,0.11,0.88,0
2022,0.46,0.11,0.89,0
2023,0.45,0.12,0.89,0
2024,0.46,0.11,0.88,0
2025,0.46,0.11,0.88,0
2026,0.46,0.11,0.88,0
2027,0.46,0.11,0.88,0
2028,0.46,0.11,0.88,0
2029,0.46,0.11,0.89,0
2030,0.46,0.11,0.89,0
2031,0.46,0.11,0.89,0
2032,0.46,0.11,0.9,0
2033,0.45,0.11,0.89,0
2034,0.45,0.11,0.89,0
2035,0.46,0.11,0.89,0
2036,0.46,0.11,0.89,0
2037,0.46,0.11,0.88,0
2038,0.45,0.12,0.89,0
2039,0.46,0.11,0.9,0
2040,0.45,0.11,0.88,0
2041,0.45,0.11,0.89,0
2042,0.46,0.11,0.9,0
2043,0.45,0.12,0.89,0
2044,0.46,0.11,0.89,0
2045,0.45,0.11,0.89,0
2046,0.45,0.11,0.88,0
2047,0.45,0.11,0.89,0
2048,0.46,0.11,0.89,0
2049,0.44,0.11,0.88,0
2050,0.45,0.11,0.88,0
2051,0.46,0.11,0.9,0
2052,0.45,0.11,0.89,0
2053,0.45,0.11,0.89,0
2054,0.45,0.11,0.89,0
2055,0.45,0.11,0.89,0
2056,0.46,0.11,0.9,0
2057,0.41,0.11,0.87,0
2058,0.44,0.12,0.91,0
2059,0.41,0.11,0.89,0
2060,0.46,0.1,0.95,0
2061,0.42,0.1,0.9,0
2062,0.45,0.1,0.9,0
2063,0.38,0.13,0.93,0
2064,0.46,0.11,0.91,0
2065,0.48,0.13,0.85,0
2066,0.46,0.11,0.88,0
2067,0.46,0.11,0.89,0
2068,0.46,0.11,0.88,0
2069,0.46,0.11,0.88,0
2070,0.46,0.11,0.88,0
2071,0.46,0.11,0.88,0
2072,0.46,0.11,0.88,0
2073,0.46,0.11,0.88,0
2074,0.46,0.11,0.89,0
2075,0.46,0.1,0.88,2
2076,0.46,0.1,0.88,2
2077,0.46,0.1,0.87,2
2078,0.46,0.11,0.88,2
2079,0.46,0.1,0.89,2
2080,0.46,0.1,0.88,2
2081,0.46,0.11,0.88,2
2082,0.47,0.11,0.88,2
2083,0.46,0.11,0.89,2
2084,0.46,0.11,0.89,2
2085,0.46,0.1,0.89,2
2086,0.46,0.1,0.88,2
2087,0.46,0.11,0.88,2
2088,0.46,0.1,0.89,2
2089,0.46,0.1,0.89,2
2090,0.46,0.1,0.89,2
2091,0.46,0.1,0.88,2
2092,0.46,0.1,0.88,2
2093,0.46,0.11,0.86,2
2094,0.46,0.11,0.87,2
2095,0.48,0.11,0.84,2
2096,0.46,0.12,0.83,2
2097,0.47,0.16,0.85,2
2098,0.44,0.22,0.84,2
2099,0.29,0.33,0.83,2
2100,0.21,0.39,0.95,2
2101,0.11,0.48,1.1,2
2102,0.38,0.48,1.38,2
2103,0.62,0.42,1.68,2
2104,0.63,0.32,1.95,2
2105,1.04,0.18,1.89,2
2106,1.1,-0.06,1.65,2
2107,1.25,-0.23,1.17,2
2108,1.35,-0.2,0.59,2
2109,1.2,-0.12,0.11,2
2110,0.9,0.02,-0.15,2
2111,0.33,0.17,-0.29,2
2112,0.08,0.25,-0.34,2
2113,-0.06,0.4,-0.27,2
2114,-0.2,0.53,0.03,2
2115,-0.1,0.73,0.47,2
2116,-0.12,0.94,0.91,2
2117,0.21,0.88,1.38,2
2118,0.35,0.84,1.47,2
2119,0.61,0.74,1.77,2
2120,0.75,0.69,1.88,2
2121,0.78,0.34,1.79,2
2122,0.67,0.03,1.46,2
2123,0.86,-0.08,1.11,2
2124,0.76,-0.37,0.81,2
2125,0.58,-0.25,0.74,2
2126,0.48,-0.17,0.76,2
2127,0.31,0.01,0.85,2
2128,0.37,0.1,0.89,2
2129,0.34,0.18,0.9,2
2130,0.34,0.2,0.94,2
2131,0.35,0.22,0.93,2
2132,0.31,0.21,0.95,2
2133,0.35,0.21,0.95,2
2134,0.31,0.19,0.93,2
2135,0.37,0.18,0.92,2
2136,0.35,0.19,0.92,2
2137,0.37,0.2,0.93,2
2138,0.38,0.22,0.95,2
2139,0.38,0.21,0.94,2
2140,0.39,0.21,0.91,2
2141,0.39,0.18,0.88,2
2142,0.4,0.23,0.92,2
2143,0.37,0.2,0.91,2
2144,0.4,0.14,0.9,2
2145,0.31,0.23,0.88,2
2146,0.5,0.14,0.84,2
2147,0.3,0.22,0.95,2
2148,0.41,0.2,0.96,2
2149,0.43,0.21,0.94,2
2150,0.37,0.21,0.94,2
2151,0.42,0.22,0.88,2
2152,0.45,0.12,0.82,2
2153,0.41,0.23,0.87,2
2154,0.43,0.17,0.89,2
2155,0.43,0.19,0.9,2
2156,0.41,0.2,0.94,2
2157,0.38,0.21,0.93,2
2158,0.4,0.14,0.91,2
2159,0.41,0.19,0.87,2
2160,0.55,0.2,0.86,2
2161,0.44,0.18,0.87,2
2162,0.44,0.18,0.89,2
2163,0.46,0.19,0.87,2
2164,0.46,0.19,0.89,2
2165,0.46,0.18,0.88,2
2166,0.45,0.18,0.87,2
2167,0.46,0.18,0.87,2
2168,0.46,0.19,0.88,2
2169,0.45,0.19,0.88,2
2170,0.46,0.17,0.88,2
2171,0.45,0.18,0.87,2
2172,0.46,0.17,0.87,2
2173,0.46,0.17,0.87,2
2174,0.45,0.18,0.88,2
2175,0.46,0.17,0.88,0
2176,0.46,0.17,0.87,0
2177,0.46,0.17,0.88,0
2178,0.46,0.17,0.88,0
2179,0.46,0.17,0.88,0
2180,0.46,0.15,0.88,0
2181,0.46,0.16,0.87,0
2182,0.46,0.15,0.88,0
2183,0.46,0.16,0.88,0
2184,0.46,0.15,0.87,0
2185,0.46,0.16,0.87,0
2186,0.46,0.16,0.88,0
2187,0.46,0.16,0.88,0
2188,0.46,0.17,0.88,0
2189,0.46,0.16,0.88,0
2190,0.46,0.16,0.88,0
2191,0.46,0.15,0.87,0
2192,0.46,0.15,0.87,0
2193,0.46,0.15,0.88,0
2194,0.46,0.15,0.88,0
2195,0.46,0.14,0.87,0
2196,0.46,0.15,0.87,0
2197,0.46,0.15,0.88,0
2198,0.46,0.15,0.88,0
2199,0.46,0.15,0.87,0
2200,0.46,0.14,0.87,0
2201,0.46,0.14,0.87,0
2202,0.46,0.14,0.88,0
2203,0.46,0.14,0.89,0
2204,0.46,0.15,0.88,0
2205,0.46,0.14,0.88,0
2206,0.46,0.14,0.88,0
2207,0.46,0.15,0.88,0
2208,0.46,0.14,0.87,0
2209,0.46,0.14,0.87,0
2210,0.46,0.14,0.88,0
2211,0.46,0.14,0.88,0
2212,0.46,0.14,0.88,0
2213,0.46,0.14,0.88,0
2214,0.46,0.14,0.88,0
2215,0.46,0.14,0.87,0
2216,0.46,0.13,0.87,0
2217,0.46,0.14,0.87,0
2218,0.46,0.14,0.88,0
2219,0.46,0.14,0.88,0
2220,0.46,0.13,0.88,0
2221,0.46,0.14,0.88,0
2222,0.46,0.14,0.88,0
2223,0.46,0.14,0.88,0
2224,0.46,0.14,0.88,0
2225,0.46,0.14,0.87,0
2226,0.46,0.14,0.88,0
2227,0.46,0.14,0.88,0
2228,0.46,0.13,0.88,0
2229,0.46,0.14,0.88,0
2230,0.46,0.14,0.88,0
2231,0.46,0.14,0.88,0
2232,0.46,0.14,0.88,0
2233,0.46,0.13,0.88,0
2234,0.46,0.13,0.88,0
2235,0.46,0.13,0.88,0
2236,0.46,0.14,0.88,0
2237,0.46,0.14,0.88,0
2238,0.46,0.13,0.87,0
2239,0.46,0.13,0.88,0
2240,0.46,0.13,0.89,0
2241,0.46,0.14,0.89,0
2242,0.46,0.14,0.88,0
2243,0.46,0.14,0.88,0
2244,0.46,0.13,0.88,0
2245,0.46,0.13,0.87,0
2246,0.46,0.13,0.87,0
2247,0.46,0.13,0.87,0
2248,0.46,0.13,0.88,0
2249,0.46,0.14,0.89,0
2250,0.46,0.14,0.88,0
2251,0.46,0.13,0.88,0
2252,0.46,0.13,0.88,0
2253,0.46,0.13,0.87,0
2254,0.46,0.14,0.87,0
2255,0.46,0.13,0.87,0
2256,0.46,0.14,0.88,0
2257,0.46,0.13,0.89,0
2258,0.46,0.13,0.88,0
2259,0.46,0.13,0.88,0
2260,0.46,0.14,0.88,0
2261,0.46,0.13,0.88,0
2262,0.46,0.13,0.88,0
2263,0.46,0.13,0.87,0
2264,0.46,0.12,0.87,0
2265,0.46,0.13,0.87,0
2266,0.46,0.14,0.88,0
2267,0.46,0.13,0.89,0
2268,0.46,0.12,0.89,0
2269,0.46,0.13,0.88,0
2270,0.46,0.12,0.87,0
2271,0.46,0.13,0.87,0
2272,0.46,0.13,0.88,0
2273,0.46,0.13,0.88,0
2274,0.46,0.13,0.88,0
2275,0.46,0.12,0.89,0
2276,0.46,0.13,0.88,0
2277,0.46,0.13,0.88,0
2278,0.46,0.13,0.88,0
2279,0.46,0.12,0.87,0
2280,0.46,0.12,0.87,0
2281,0.46,0.12,0.87,0
2282,0.46,0.13,0.88,0
2283,0.46,0.12,0.88,0
2284,0.46,0.12,0.88,0
2285,0.46,0.12,0.88,0
2286,0.46,0.12,0.88,0
2287,0.46,0.12,0.88,0
2288,0.46,0.12,0.88,0
2289,0.46,0.12,0.88,0
2290,0.46,0.12,0.88,0
2291,0.46,0.11,0.87,0
2292,0.46,0.12,0.86,0
2293,0.46,0.12,0.87,0
2294,0.47,0.12,0.89,0
2295,0.46,0.12,0.87,0
2296,0.47,0.11,0.87,0
2297,0.46,0.12,0.88,0
2298,0.46,0.12,0.87,0
2299,0.46,0.12,0.88,0
2300,0.47,0.12,0.87,0
2301,0.47,0.13,0.88,0
2302,0.46,0.13,0.89,0
2303,0.46,0.11,0.88,0
2304,0.46,0.11,0.87,0
2305,0.45,0.12,0.87,0
2306,0.46,0.12,0.89,0
2307,0.46,0.11,0.88,0
2308,0.46,0.11,0.88,0
2309,0.44,0.12,0.88,0
2310,0.46,0.11,0.9,0
2311,0.46,0.12,0.88,0
2312,0.46,0.12,0.88,0
2313,0.45,0.12,0.9,0
2314,0.46,0.12,0.89,0
2315,0.46,0.11,0.88,0
2316,0.46,0.11,0.88,0
2317,0.46,0.12,0.89,0
2318,0.46,0.11,0.9,0
2319,0.45,0.12,0.89,0
2320,0.46,0.13,0.89,0
2321,0.46,0.11,0.9,0
2322,0.45,0.12,0.9,0
2323,0.45,0.12,0.87,0
2324,0.45,0.13,0.9,0
2325,0.46,0.11,0.89,0
2326,0.45,0.11,0.88,0
2327,0.43,0.12,0.92,0
2328,0.44,0.12,0.88,0
2329,0.4,0.15,0.92,0
2330,0.45,0.12,0.93,0
2331,0.44,0.1,0.89,0
2332,0.44,0.1,0.9,0
2333,0.46,0.16,0.93,0
2334,0.44,0.16,0.9,0
2335,0.46,0.09,0.85,0
2336,0.46,0.14,0.86,0
2337,0.46,0.11,0.89,0
2338,0.46,0.12,0.89,0
2339,0.46,0.12,0.87,0
2340,0.47,0.11,0.87,0
2341,0.46,0.12,0.89,0
2342,0.46,0.12,0.88,0
2343,0.46,0.11,0.87,0
2344,0.46,0.12,0.88,0
2345,0.46,0.11,0.88,0
2346,0.46,0.11,0.88,0
2347,0.46,0.11,0.88,0
2348,0.46,0.11,0.88,0
2349,0.46,0.11,0.88,0
2350,0.46,0.11,0.88,2
2351,0.46,0.11,0.88,2
2352,0.46,0.11,0.87,2
2353,0.46,0.11,0.88,2
2354,0.46,0.11,0.87,2
2355,0.46,0.11,0.88,2
2356,0.46,0.11,0.87,2
2357,0.46,0.11,0.88,2
2358,0.46,0.11,0.9,2
2359,0.46,0.11,0.89,2
2360,0.46,0.11,0.88,2
2361,0.46,0.11,0.88,2
2362,0.46,0.11,0.88,2
2363,0.46,0.11,0.88,2
2364,0.46,0.11,0.87,2
2365,0.46,0.11,0.87,2
2366,0.46,0.11,0.86,2
2367,0.46,0.12,0.84,2
2368,0.47,0.13,0.78,2
2369,0.47,0.21,0.77,2
2370,0.45,0.29,0.74,2
2371,0.28,0.42,0.83,2
2372,0.11,0.46,1.01,2
2373,0.37,0.58,1.13,2
2374,0.79,0.52,1.47,2
2375,0.6,0.48,1.76,2
2376,0.95,0.38,1.86,2
2377,1.03,0.2,1.77,2
2378,1.13,0.06,1.39,2
2379,1.32,-0.08,0.87,2
2380,1.14,-0.05,0.45,2
2381,1.0,-0.09,0.1,2
2382,0.61,-0.09,-0.12,2
2383,0.24,-0.01,-0.21,2
2384,0.05,0.05,-0.22,2
2385,-0.12,0.17,-0.12,2
2386,0.0,0.3,0.27,2
2387,-0.15,0.53,0.85,2
2388,-0.15,0.54,0.98,2
2389,-0.01,0.52,1.12,2
2390,0.19,0.49,1.21,2
2391,0.31,0.48,1.28,2
2392,0.52,0.38,1.55,2
2393,0.55,0.35,1.52,2
2394,0.82,0.07,1.37,2
2395,0.45,0.02,1.23,2
2396,0.66,0.05,1.12,2
2397,0.69,-0.06,1.04,2
2398,0.59,0.0,0.95,2
2399,0.73,-0.09,0.89,2
2400,0.52,-0.04,0.84,2
2401,0.47,0.02,0.86,2
2402,0.45,0.09,0.85,2
2403,0.44,0.15,0.87,2
2404,0.44,0.2,0.88,2
2405,0.43,0.21,0.88,2
2406,0.46,0.21,0.9,2
2407,0.45,0.2,0.89,2
2408,0.45,0.19,0.9,2
2409,0.46,0.18,0.89,2
2410,0.46,0.18,0.88,2
2411,0.46,0.19,0.86,2
2412,0.47,0.2,0.88,2
2413,0.47,0.19,0.88,2
2414,0.45,0.19,0.86,2
2415,0.48,0.14,0.86,2
2416,0.43,0.17,0.84,2
2417,0.48,0.16,0.88,2
2418,0.41,0.17,0.85,2
2419,0.49,0.16,0.87,2
2420,0.46,0.17,0.92,2
2421,0.48,0.19,0.95,2
2422,0.47,0.19,0.9,2
2423,0.47,0.12,0.82,2
2424,0.48,0.22,0.78,2
2425,0.47,0.16,0.88,2
2426,0.52,0.16,0.83,2
2427,0.47,0.16,0.86,2
2428,0.46,0.19,0.89,2
2429,0.49,0.21,0.88,2
2430,0.54,0.2,0.86,2
2431,0.53,0.17,0.85,2
2432,0.51,0.17,0.83,2
2433,0.5,0.17,0.82,2
2434,0.5,0.17,0.83,2
2435,0.51,0.17,0.84,2
2436,0.51,0.17,0.84,2
2437,0.52,0.16,0.86,2
2438,0.52,0.16,0.85,2
2439,0.52,0.14,0.84,2
2440,0.51,0.17,0.84,2
2441,0.52,0.16,0.85,2
2442,0.51,0.15,0.85,2
2443,0.5,0.17,0.85,2
2444,0.52,0.14,0.85,2
2445,0.52,0.15,0.85,2
2446,0.51,0.16,0.84,2
2447,0.52,0.14,0.86,2
2448,0.5,0.15,0.85,2
2449,0.5,0.17,0.84,2
2450,0.54,0.16,0.84,0
2451,0.52,0.15,0.86,0
2452,0.51,0.15,0.84,0
2453,0.52,0.15,0.84,0
2454,0.52,0.15,0.85,0
2455,0.52,0.15,0.85,0
2456,0.52,0.15,0.85,0
2457,0.52,0.14,0.85,0
2458,0.52,0.14,0.85,0
2459,0.52,0.14,0.85,0
2460,0.52,0.15,0.84,0
2461,0.51,0.15,0.85,0
2462,0.51,0.16,0.85,0
2463,0.52,0.14,0.85,0
2464,0.52,0.13,0.85,0
2465,0.52,0.13,0.84,0
2466,0.52,0.13,0.85,0
2467,0.52,0.13,0.85,0
2468,0.52,0.13,0.85,0
2469,0.52,0.13,0.84,0
2470,0.52,0.13,0.85,0
2471,0.51,0.13,0.85,0
2472,0.53,0.13,0.86,0
2473,0.52,0.13,0.85,0
2474,0.52,0.13,0.86,0
2475,0.52,0.13,0.85,0
2476,0.52,0.13,0.86,0
2477,0.52,0.13,0.85,0
2478,0.52,0.12,0.84,0
2479,0.52,0.13,0.84,0
2480,0.51,0.13,0.84,0
2481,0.51,0.13,0.84,0
2482,0.52,0.13,0.85,0
2483,0.52,0.14,0.85,0
2484,0.53,0.15,0.86,0
2485,0.52,0.14,0.86,0
2486,0.52,0.12,0.85,0
2487,0.51,0.13,0.84,0
2488,0.53,0.13,0.84,0
2489,0.52,0.14,0.85,0
2490,0.52,0.14,0.84,0
2491,0.52,0.13,0.85,0
2492,0.52,0.12,0.85,0
2493,0.52,0.12,0.85,0
2494,0.53,0.12,0.83,0
2495,0.52,0.13,0.82,0
2496,0.54,0.14,0.85,0
2497,0.54,0.12,0.88,0
2498,0.49,0.18,0.84,0
2499,0.49,0.21,0.8,0
2500,0.47,0.18,0.8,0
2501,0.55,0.11,0.83,0
2502,0.53,0.1,0.85,0
2503,0.56,0.1,0.87,0
2504,0.54,0.1,0.86,0
2505,0.53,0.1,0.84,0
2506,0.55,0.1,0.82,0
2507,0.57,0.11,0.83,0
2508,0.55,0.14,0.85,0
2509,0.55,0.15,0.86,0
2510,0.53,0.17,0.86,0
2511,0.53,0.17,0.85,0
2512,0.52,0.15,0.84,0
2513,0.52,0.13,0.82,0
2514,0.52,0.11,0.81,0
2515,0.53,0.11,0.82,0
2516,0.54,0.11,0.82,0
2517,0.54,0.11,0.82,0
2518,0.55,0.11,0.82,0
2519,0.55,0.11,0.83,0
2520,0.54,0.12,0.84,0
2521,0.54,0.14,0.85,0
2522,0.54,0.15,0.85,0
2523,0.53,0.16,0.84,0
2524,0.54,0.15,0.83,0
2525,0.54,0.14,0.82,0
2526,0.54,0.15,0.82,0
2527,0.53,0.17,0.85,0
2528,0.53,0.17,0.86,0
2529,0.53,0.14,0.86,0
2530,0.53,0.12,0.85,0
2531,0.49,0.13,0.81,0
2532,0.53,0.13,0.8,0
2533,0.56,0.11,0.84,0
2534,0.53,0.11,0.83,0
2535,0.55,0.11,0.84,0
2536,0.56,0.13,0.86,0
2537,0.53,0.11,0.85,0
2538,0.52,0.11,0.82,0
2539,0.55,0.12,0.83,0
2540,0.51,0.11,0.83,0
2541,0.52,0.13,0.85,0
2542,0.51,0.12,0.85,0
2543,0.49,0.11,0.86,0
2544,0.51,0.11,0.86,0
2545,0.53,0.1,0.85,0
2546,0.51,0.11,0.86,0
2547,0.52,0.11,0.86,0
2548,0.48,0.11,0.85,0
2549,0.51,0.12,0.85,0
2550,0.48,0.12,0.86,0
2551,0.53,0.11,0.87,0
2552,0.5,0.11,0.86,0
2553,0.52,0.12,0.88,0
2554,0.47,0.13,0.87,0
2555,0.61,0.11,0.81,0
2556,0.5,0.09,0.82,0
2557,0.52,0.1,0.87,0
2558,0.58,0.11,0.87,0
2559,0.51,0.09,0.85,0
2560,0.52,0.1,0.85,0
2561,0.54,0.1,0.85,0
2562,0.52,0.1,0.84,0
2563,0.52,0.1,0.84,0
2564,0.52,0.1,0.83,0
2565,0.53,0.1,0.84,0
2566,0.53,0.1,0.85,0
2567,0.52,0.1,0.85,0
2568,0.53,0.1,0.85,0
2569,0.53,0.1,0.85,0
2570,0.56,0.1,0.82,0
2571,0.53,0.11,0.85,0
2572,0.57,0.1,0.87,0
2573,0.53,0.07,0.82,0
2574,0.52,0.08,0.81,0
2575,0.52,0.1,0.83,2
2576,0.53,0.1,0.85,2
2577,0.55,0.09,0.85,2
2578,0.55,0.08,0.85,2
2579,0.55,0.08,0.84,2
2580,0.55,0.08,0.84,2
2581,0.54,0.09,0.85,2
2582,0.55,0.09,0.85,2
2583,0.53,0.09,0.85,2
2584,0.53,0.08,0.84,2
2585,0.53,0.07,0.84,2
2586,0.54,0.08,0.84,2
2587,0.55,0.07,0.84,2
2588,0.53,0.07,0.84,2
2589,0.53,0.08,0.85,2
2590,0.53,0.08,0.84,2
2591,0.52,0.09,0.81,2
2592,0.5,0.13,0.78,2
2593,0.46,0.23,0.76,2
2594,0.43,0.33,0.76,2
2595,0.37,0.37,0.84,2
2596,0.3,0.37,0.95,2
2597,0.45,0.42,1.24,2
2598,0.56,0.33,1.66,2
2599,0.58,0.23,1.92,2
2600,0.92,0.09,1.81,2
2601,1.08,-0.14,1.43,2
2602,1.34,-0.29,1.02,2
2603,1.22,-0.29,0.54,2
2604,1.07,-0.37,0.21,2
2605,0.68,-0.27,0.01,2
2606,0.36,-0.17,-0.03,2
2607,0.14,-0.07,-0.08,2
2608,-0.01,0.08,-0.03,2
2609,-0.08,0.22,0.11,2
2610,0.04,0.34,0.48,2
2611,0.0,0.45,0.74,2
2612,0.1,0.58,1.13,2
2613,0.14,0.51,1.15,2
2614,0.46,0.49,1.48,2
2615,0.35,0.45,1.6,2
2616,0.62,0.31,1.64,2
2617,0.62,0.09,1.44,2
2618,0.54,-0.06,1.19,2
2619,0.86,-0.14,1.03,2
2620,0.58,-0.26,0.91,2
2621,0.73,-0.22,0.87,2
2622,0.5,-0.18,0.84,2
2623,0.41,-0.01,0.87,2
2624,0.42,0.08,0.92,2
2625,0.4,0.13,0.93,2
2626,0.42,0.15,0.93,2
2627,0.41,0.19,0.93,2
2628,0.42,0.19,0.94,2
2629,0.44,0.13,0.93,2
2630,0.41,0.13,0.92,2
2631,0.44,0.12,0.91,2
2632,0.44,0.13,0.9,2
2633,0.45,0.12,0.89,2
2634,0.45,0.12,0.89,2
2635,0.46,0.14,0.88,2
2636,0.47,0.12,0.89,2
2637,0.46,0.12,0.88,2
2638,0.46,0.13,0.88,2
2639,0.47,0.12,0.88,2
2640,0.43,0.11,0.86,2
2641,0.47,0.15,0.87,2
2642,0.42,0.12,0.87,2
2643,0.46,0.11,0.92,2
2644,0.45,0.13,0.89,2
2645,0.47,0.09,0.91,2
2646,0.48,0.11,0.91,2
2647,0.46,0.14,0.94,2
2648,0.47,0.13,0.9,2
2649,0.41,0.09,0.81,2
2650,0.47,0.21,0.77,2
2651,0.54,0.08,0.89,2
2652,0.47,0.11,0.88,2
2653,0.47,0.15,0.93,2
2654,0.46,0.12,0.93,2
2655,0.46,0.11,0.93,2
2656,0.53,0.14,0.81,2
2657,0.5,0.12,0.85,2
2658,0.49,0.11,0.85,2
2659,0.52,0.12,0.86,2
2660,0.5,0.11,0.86,2
2661,0.48,0.11,0.85,2
2662,0.48,0.11,0.86,2
2663,0.5,0.11,0.87,2
2664,0.48,0.11,0.86,2
2665,0.51,0.11,0.87,2
2666,0.5,0.1,0.87,2
2667,0.48,0.1,0.87,2
2668,0.47,0.1,0.85,2
2669,0.49,0.1,0.86,2
2670,0.49,0.1,0.87,2
2671,0.49,0.09,0.87,2
2672,0.49,0.1,0.87,2
2673,0.5,0.1,0.86,2
2674,0.49,0.1,0.87,2
2675,0.49,0.1,0.86,0
2676,0.5,0.1,0.87,0
2677,0.5,0.11,0.86,0
2678,0.5,0.1,0.86,0
2679,0.49,0.1,0.86,0
2680,0.5,0.1,0.86,0
2681,0.51,0.09,0.86,0
2682,0.5,0.1,0.86,0
2683,0.5,0.1,0.86,0
2684,0.52,0.1,0.87,0
2685,0.49,0.1,0.87,0
2686,0.49,0.1,0.86,0
2687,0.52,0.1,0.86,0
2688,0.5,0.1,0.85,0
2689,0.52,0.09,0.86,0
2690,0.51,0.09,0.86,0
2691,0.5,0.09,0.86,0
2692,0.51,0.09,0.86,0
2693,0.52,0.09,0.86,0
2694,0.51,0.09,0.86,0
2695,0.51,0.1,0.85,0
2696,0.51,0.1,0.86,0
2697,0.5,0.09,0.86,0
2698,0.51,0.09,0.86,0
2699,0.52,0.09,0.86,0
2700,0.51,0.1,0.86,0
2701,0.52,0.09,0.86,0
2702,0.51,0.09,0.86,0
2703,0.5,0.09,0.86,0
2704,0.51,0.1,0.85,0
2705,0.52,0.1,0.86,0
2706,0.51,0.1,0.86,0
2707,0.51,0.1,0.86,0
2708,0.52,0.09,0.86,0
2709,0.51,0.1,0.86,0
2710,0.51,0.1,0.86,0
2711,0.52,0.1,0.86,0
2712,0.52,0.09,0.86,0
2713,0.51,0.1,0.85,0
2714,0.52,0.09,0.86,0
2715,0.51,0.1,0.85,0
2716,0.52,0.1,0.86,0
2717,0.51,0.1,0.85,0
2718,0.52,0.1,0.86,0
2719,0.51,0.09,0.86,0
2720,0.52,0.09,0.86,0
2721,0.51,0.09,0.86,0
2722,0.51,0.09,0.86,0
2723,0.52,0.09,0.87,0
2724,0.52,0.09,0.86,0
2725,0.51,0.1,0.85,0
2726,0.52,0.09,0.86,0
2727,0.51,0.09,0.84,0
2728,0.52,0.1,0.85,0
2729,0.51,0.1,0.86,0
2730,0.52,0.08,0.86,0
2731,0.52,0.09,0.86,0
2732,0.51,0.1,0.85,0
2733,0.52,0.1,0.86,0
2734,0.5,0.1,0.86,0
2735,0.51,0.09,0.86,0
2736,0.52,0.09,0.86,0
2737,0.52,0.09,0.86,0
2738,0.52,0.09,0.86,0
2739,0.51,0.09,0.86,0
2740,0.52,0.09,0.86,0
2741,0.51,0.1,0.86,0
2742,0.52,0.09,0.86,0
2743,0.51,0.09,0.86,0
2744,0.51,0.1,0.86,0
2745,0.52,0.1,0.86,0
2746,0.51,0.1,0.85,0
2747,0.51,0.1,0.86,0
2748,0.51,0.09,0.85,0
2749,0.52,0.09,0.86,0
2750,0.51,0.1,0.86,0
2751,0.53,0.1,0.86,0
2752,0.52,0.09,0.86,0
2753,0.52,0.09,0.86,0
2754,0.52,0.1,0.86,0
2755,0.52,0.1,0.86,0
2756,0.52,0.09,0.87,0
2757,0.52,0.09,0.86,0
2758,0.51,0.1,0.85,0
2759,0.5,0.1,0.86,0
2760,0.49,0.09,0.85,0
2761,0.51,0.1,0.86,0
2762,0.49,0.09,0.86,0
2763,0.51,0.07,0.86,0
2764,0.52,0.09,0.87,0
2765,0.45,0.1,0.87,0
2766,0.53,0.05,0.87,0
2767,0.47,0.11,0.87,0
2768,0.52,0.1,0.92,0
2769,0.46,0.09,0.88,0
2770,0.47,0.09,0.88,0
2771,0.46,0.1,0.89,0
2772,0.47,0.08,0.88,0
2773,0.47,0.1,0.86,0
2774,0.52,0.08,0.86,0
2775,0.54,0.1,0.85,0
2776,0.48,0.09,0.87,0
2777,0.5,0.09,0.86,0
2778,0.48,0.09,0.86,0
2779,0.53,0.1,0.87,0
2780,0.51,0.09,0.87,0
2781,0.5,0.09,0.86,0
2782,0.52,0.1,0.86,0
2783,0.49,0.1,0.86,0
2784,0.52,0.09,0.86,0
2785,0.51,0.09,0.85,0
2786,0.52,0.09,0.85,0
2787,0.51,0.09,0.86,0
2788,0.51,0.09,0.86,0
2789,0.51,0.09,0.86,0
2790,0.51,0.09,0.86,0
2791,0.51,0.09,0.86,0
2792,0.52,0.09,0.86,0
2793,0.52,0.08,0.86,0
2794,0.51,0.09,0.86,0
2795,0.52,0.09,0.86,0
2796,0.51,0.09,0.86,0
2797,0.51,0.09,0.86,0
2798,0.51,0.09,0.86,0
2799,0.51,0.09,0.86,0
2800,0.51,0.09,0.86,2
2801,0.51,0.08,0.86,2
2802,0.5,0.09,0.86,2
2803,0.51,0.09,0.86,2
2804,0.51,0.09,0.86,2
2805,0.5,0.09,0.86,2
2806,0.5,0.09,0.86,2
2807,0.5,0.09,0.86,2
2808,0.5,0.09,0.87,2
2809,0.51,0.09,0.87,2
2810,0.5,0.09,0.86,2
2811,0.49,0.08,0.86,2
2812,0.5,0.09,0.86,2
2813,0.5,0.09,0.87,2
2814,0.51,0.08,0.86,2
2815,0.49,0.09,0.85,2
2816,0.51,0.09,0.86,2
2817,0.51,0.08,0.86,2
2818,0.5,0.09,0.85,2
2819,0.55,0.08,0.8,2
2820,0.52,0.14,0.77,2
2821,0.48,0.21,0.78,2
2822,0.41,0.31,0.79,2
2823,0.38,0.37,0.9,2
2824,0.44,0.43,1.0,2
2825,0.45,0.42,1.13,2
2826,0.35,0.38,1.27,2
2827,0.53,0.31,1.57,2
2828,0.6,0.22,1.85,2
2829,0.78,0.1,2.01,2
2830,1.08,-0.03,1.68,2
2831,1.36,-0.03,1.16,2
2832,1.43,0.0,0.65,2
2833,1.23,0.01,0.26,2
2834,0.77,-0.07,0.02,2
2835,0.38,-0.06,-0.12,2
2836,0.17,-0.02,-0.21,2
2837,0.04,0.08,-0.14,2
2838,-0.05,0.22,0.02,2
2839,-0.11,0.36,0.4,2
2840,-0.14,0.56,0.78,2
2841,-0.04,0.61,1.14,2
2842,-0.01,0.63,1.1,2
2843,0.37,0.48,1.29,2
2844,0.37,0.48,1.47,2
2845,0.4,0.36,1.6,2
2846,0.69,0.2,1.46,2
2847,0.56,-0.01,1.35,2
2848,0.73,-0.07,1.16,2
2849,0.68,-0.18,1.06,2
2850,0.55,-0.15,0.91,2
2851,0.73,-0.12,0.92,2
2852,0.52,-0.02,0.87,2
2853,0.52,0.04,0.95,2
2854,0.47,0.11,0.94,2
2855,0.45,0.17,0.92,2
2856,0.46,0.18,0.89,2
2857,0.46,0.17,0.86,2
2858,0.47,0.15,0.86,2
2859,0.49,0.13,0.85,2
2860,0.47,0.17,0.86,2
2861,0.48,0.18,0.87,2
2862,0.49,0.19,0.88,2
2863,0.52,0.19,0.88,2
2864,0.52,0.16,0.86,2
2865,0.51,0.16,0.85,2
2866,0.5,0.14,0.86,2
2867,0.5,0.15,0.86,2
2868,0.52,0.14,0.85,2
2869,0.51,0.14,0.85,2
2870,0.52,0.12,0.84,2
2871,0.5,0.14,0.84,2
2872,0.53,0.14,0.85,2
2873,0.46,0.12,0.84,2
2874,0.54,0.17,0.84,2
2875,0.47,0.14,0.88,2
2876,0.51,0.15,0.84,2
2877,0.51,0.14,0.87,2
2878,0.52,0.14,0.88,2
2879,0.52,0.15,0.9,2
2880,0.51,0.14,0.86,2
2881,0.45,0.15,0.8,2
2882,0.52,0.17,0.8,2
2883,0.46,0.13,0.9,2
2884,0.48,0.13,0.88,2
2885,0.47,0.12,0.88,2
2886,0.46,0.16,0.91,2
2887,0.55,0.16,0.9,2
2888,0.47,0.17,0.83,2
2889,0.52,0.16,0.82,2
2890,0.5,0.16,0.85,2
2891,0.48,0.16,0.84,2
2892,0.51,0.16,0.85,2
2893,0.5,0.17,0.86,2
2894,0.48,0.14,0.86,2
2895,0.5,0.15,0.85,2
2896,0.5,0.15,0.85,2
2897,0.49,0.15,0.86,2
2898,0.48,0.15,0.86,2
2899,0.49,0.16,0.87,2
2900,0.49,0.16,0.87,0
2901,0.51,0.15,0.86,0
2902,0.49,0.15,0.86,0
2903,0.48,0.16,0.86,0
2904,0.51,0.15,0.86,0
2905,0.48,0.15,0.85,0
2906,0.49,0.15,0.86,0
2907,0.49,0.16,0.86,0
2908,0.49,0.15,0.86,0
2909,0.49,0.14,0.86,0
2910,0.49,0.15,0.86,0
2911,0.49,0.14,0.86,0
2912,0.48,0.15,0.86,0
2913,0.5,0.15,0.86,0
2914,0.49,0.14,0.86,0
2915,0.49,0.14,0.85,0
2916,0.48,0.14,0.86,0
2917,0.49,0.14,0.86,0
2918,0.5,0.15,0.86,0
2919,0.5,0.14,0.86,0
2920,0.5,0.15,0.86,0
2921,0.5,0.14,0.86,0
2922,0.5,0.15,0.85,0
2923,0.49,0.15,0.85,0
2924,0.49,0.15,0.85,0
2925,0.5,0.15,0.86,0
2926,0.5,0.14,0.85,0
2927,0.49,0.15,0.86,0
2928,0.5,0.09,0.87,0
2929,0.5,0.17,0.86,0
2930,0.5,0.14,0.87,0
2931,0.51,0.13,0.87,0
2932,0.49,0.14,0.85,0
2933,0.49,0.16,0.86,0
2934,0.5,0.14,0.86,0
2935,0.5,0.13,0.86,0
2936,0.5,0.13,0.86,0
2937,0.49,0.12,0.85,0
2938,0.5,0.12,0.85,0
2939,0.5,0.12,0.85,0
2940,0.51,0.12,0.86,0
2941,0.51,0.12,0.85,0
2942,0.51,0.14,0.85,0
2943,0.5,0.14,0.85,0
2944,0.49,0.13,0.85,0
2945,0.51,0.12,0.86,0
2946,0.51,0.12,0.86,0
2947,0.51,0.13,0.86,0
2948,0.51,0.14,0.86,0
2949,0.51,0.15,0.86,0
2950,0.5,0.14,0.85,0
2951,0.51,0.14,0.85,0
2952,0.52,0.13,0.85,0
2953,0.52,0.14,0.86,0
2954,0.52,0.14,0.86,0
2955,0.51,0.16,0.85,0
2956,0.49,0.14,0.85,0
2957,0.5,0.13,0.86,0
2958,0.51,0.13,0.86,0
2959,0.51,0.13,0.86,0
2960,0.51,0.12,0.85,0
2961,0.5,0.13,0.85,0
2962,0.5,0.12,0.85,0
2963,0.49,0.13,0.85,0
2964,0.5,0.13,0.85,0
2965,0.5,0.12,0.85,0
2966,0.5,0.13,0.85,0
2967,0.51,0.12,0.85,0
2968,0.52,0.11,0.85,0
2969,0.51,0.11,0.86,0
2970,0.52,0.11,0.86,0
2971,0.51,0.12,0.85,0
2972,0.51,0.12,0.85,0
2973,0.51,0.13,0.83,0
2974,0.51,0.14,0.81,0
2975,0.5,0.14,0.8,0
2976,0.51,0.15,0.78,0
2977,0.5,0.16,0.76,0
2978,0.48,0.16,0.77,0
2979,0.47,0.17,0.78,0
2980,0.48,0.15,0.77,0
2981,0.53,0.14,0.78,0
2982,0.54,0.12,0.77,0
2983,0.58,0.11,0.76,0
2984,0.58,0.08,0.86,0
2985,0.48,0.08,0.87,0
2986,0.56,0.06,0.96,0
2987,0.51,0.07,0.94,0
2988,0.59,0.08,0.96,0
2989,0.49,0.06,0.91,0
2990,0.55,0.1,0.86,0
2991,0.5,0.16,0.81,0
2992,0.51,0.22,0.76,0
2993,0.45,0.29,0.76,0
2994,0.64,0.29,0.86,0
2995,0.58,0.36,0.77,0
2996,0.58,0.33,0.73,0
2997,0.57,0.34,0.75,0
2998,0.54,0.4,0.75,0
2999,0.56,0.47,0.73,0
3000,0.54,0.54,0.72,0
3001,0.55,0.49,0.71,0
3002,0.52,0.48,0.71,0
3003,0.52,0.48,0.7,0
3004,0.51,0.48,0.65,0
3005,0.51,0.45,0.68,0
3006,0.53,0.42,0.67,0
