sequence,accelx,accely,accelz,event
0,0.85,0.06,0.53,0
1,0.85,0.04,0.54,0
2,0.83,0.03,0.55,0
3,0.82,0.01,0.58,0
4,0.78,-0.01,0.59,0
5,0.8,-0.01,0.6,0
6,0.28,-0.12,0.94,0
7,0.21,0.01,0.98,0
8,0.21,0.01,0.99,0
9,0.19,0.03,0.99,0
10,0.2,0.01,1.0,0
11,0.17,0.0,0.99,0
12,0.2,-0.03,0.98,0
13,0.21,-0.03,0.98,0
14,0.22,-0.02,0.99,0
15,0.24,-0.02,0.98,0
16,0.28,-0.02,0.96,0
17,0.34,-0.06,0.92,0
18,0.35,-0.11,0.94,0
19,0.27,-0.11,0.95,0
20,0.2,-0.08,0.98,0
21,0.18,-0.05,1.03,0
22,0.21,-0.01,1.05,0
23,0.2,0.01,1.03,0
24,0.21,0.02,1.02,0
25,0.18,0.04,0.99,0
26,0.17,0.05,0.98,0
27,0.13,0.05,0.96,0
28,0.13,0.03,0.95,0
29,0.11,0.01,0.94,0
30,0.11,0.0,0.97,0
31,0.16,-0.01,0.98,0
32,0.14,-0.02,0.98,0
33,0.11,-0.03,0.98,0
34,0.1,-0.01,0.98,0
35,0.09,0.01,1.0,0
36,0.09,0.01,1.0,0
37,0.1,0.01,0.99,0
38,0.14,0.0,0.98,0
39,0.11,0.01,0.98,0
40,0.12,0.01,0.98,0
41,0.12,0.0,0.98,0
42,0.1,0.0,0.98,0
43,0.12,0.0,0.99,0
44,0.09,0.0,0.99,0
45,0.14,0.0,0.98,0
46,0.11,0.0,0.97,0
47,0.12,-0.01,0.98,0
48,0.11,0.02,0.98,0
49,0.12,0.01,0.98,0
50,0.15,0.03,1.0,0
51,0.08,0.03,0.98,0
52,0.09,0.02,0.99,0
53,0.06,0.02,0.98,0
54,0.07,0.03,0.98,0
55,0.07,0.04,0.99,0
56,0.09,0.0,0.99,0
57,0.04,0.07,0.99,0
58,-0.01,0.06,0.99,0
59,0.03,0.04,1.01,0
60,0.07,0.04,1.02,0
61,0.04,0.06,1.03,0
62,0.1,0.01,1.04,0
63,0.1,0.07,0.99,0
64,0.08,0.03,0.97,0
65,0.08,0.03,0.96,0
66,0.12,0.04,0.97,0
67,0.11,0.06,0.98,0
68,0.13,0.05,0.98,0
69,0.11,0.04,0.98,0
70,0.11,0.04,0.98,0
71,0.1,0.04,0.98,0
72,0.12,0.04,0.99,0
73,0.12,0.05,0.99,0
74,0.12,0.04,0.98,0
75,0.12,0.04,0.98,3
76,0.12,0.04,0.99,3
77,0.13,0.04,0.99,3
78,0.11,0.04,0.98,3
79,0.12,0.04,0.99,3
80,0.12,0.04,0.98,3
81,0.12,0.04,0.99,3
82,0.13,0.04,0.98,3
83,0.12,0.04,0.98,3
84,0.13,0.04,0.98,3
85,0.12,0.04,0.98,3
86,0.13,0.04,0.98,3
87,0.12,0.04,0.98,3
88,0.12,0.04,0.98,3
89,0.13,0.04,0.98,3
90,0.13,0.04,0.98,3
91,0.13,0.04,0.98,3
92,0.14,0.04,0.98,3
93,0.13,0.04,0.98,3
94,0.14,0.04,0.98,3
95,0.13,0.05,0.99,3
96,0.14,0.06,1.01,3
97,0.11,0.07,0.99,3
98,0.13,0.05,0.99,3
99,0.13,0.04,0.98,3
100,0.12,0.03,0.98,3
101,0.09,0.0,0.99,3
102,0.08,-0.02,1.05,3
103,0.02,-0.07,1.14,3
104,-0.06,-0.11,1.22,3
105,0.0,-0.12,1.28,3
106,0.06,-0.13,1.33,3
107,0.06,-0.15,1.36,3
108,0.01,-0.15,1.31,3
109,0.08,-0.15,1.25,3
110,0.1,-0.11,1.09,3
111,0.18,-0.06,1.01,3
112,0.12,-0.03,0.89,3
113,-0.04,0.01,0.83,3
114,-0.03,0.07,0.79,3
115,-0.01,0.1,0.84,3
116,-0.16,0.06,0.75,3
117,-0.12,-0.02,0.79,3
118,-0.15,-0.04,0.74,3
119,-0.18,-0.04,0.7,3
120,-0.13,0.0,0.7,3
121,-0.15,0.05,0.67,3
122,-0.09,0.08,0.72,3
123,-0.02,0.18,0.74,3
124,0.0,0.04,0.86,3
125,-0.05,-0.01,0.89,3
126,0.12,-0.11,0.98,3
127,0.16,-0.12,1.06,3
128,0.15,-0.23,1.09,3
129,0.4,-0.22,1.29,3
130,0.17,-0.34,1.22,3
131,0.38,-0.32,1.3,3
132,0.29,-0.5,1.18,3
133,0.34,-0.45,1.1,3
134,0.32,-0.39,1.12,3
135,0.13,-0.22,1.04,3
136,0.19,-0.13,1.02,3
137,0.18,0.0,1.09,3
138,0.11,0.05,1.18,3
139,-0.13,0.13,1.21,3
140,-0.22,0.21,1.35,3
141,-0.09,0.19,1.44,3
142,0.16,0.21,1.46,3
143,0.43,0.0,1.32,3
144,0.17,0.04,1.1,3
145,0.59,0.07,1.04,3
146,0.37,0.15,0.84,3
147,0.46,0.36,0.69,3
148,0.69,0.27,0.7,3
149,0.51,0.11,0.54,3
150,0.57,0.04,0.63,3
151,0.53,-0.02,0.59,3
152,0.49,0.04,0.52,3
153,0.63,0.1,0.63,3
154,0.56,0.2,0.76,3
155,0.3,0.27,0.67,3
156,0.45,0.12,1.02,3
157,0.13,0.27,0.85,3
158,0.11,0.16,1.07,3
159,0.06,0.23,1.12,3
160,-0.24,0.24,1.07,3
161,0.22,0.32,1.27,3
162,-0.21,0.37,1.14,3
163,0.1,0.36,1.28,3
164,0.01,0.29,1.22,3
165,0.06,0.26,1.13,3
166,0.19,0.21,1.09,3
167,0.26,0.16,1.01,3
168,0.3,0.14,0.97,3
169,0.39,0.09,0.96,3
170,0.35,0.07,0.91,3
171,0.39,0.04,0.94,3
172,0.35,0.04,0.91,3
173,0.33,0.09,0.93,3
174,0.39,0.08,0.96,3
175,0.34,0.08,0.93,3
176,0.39,0.07,0.95,3
177,0.36,0.07,0.93,3
178,0.36,0.07,0.94,3
179,0.36,0.07,0.93,3
180,0.37,0.05,0.92,3
181,0.32,0.05,0.93,3
182,0.39,0.04,0.95,3
183,0.28,0.09,0.95,3
184,0.4,0.05,0.94,3
185,0.29,0.08,0.92,3
186,0.35,0.08,0.96,3
187,0.35,0.09,0.98,3
188,0.34,0.07,1.0,3
189,0.31,0.03,0.95,3
190,0.3,0.09,0.89,3
191,0.4,0.06,0.91,3
192,0.29,0.09,0.93,3
193,0.36,0.05,0.95,3
194,0.34,0.09,0.97,3
195,0.29,0.04,0.98,3
196,0.39,0.07,0.96,3
197,0.36,0.06,0.93,3
198,0.36,0.07,0.93,3
199,0.38,0.06,0.93,3
200,0.37,0.06,0.92,0
201,0.36,0.07,0.9,0
202,0.37,0.06,0.94,0
203,0.36,0.06,0.94,0
204,0.36,0.07,0.94,0
205,0.36,0.06,0.95,0
206,0.37,0.06,0.94,0
207,0.38,0.06,0.95,0
208,0.37,0.06,0.94,0
209,0.36,0.06,0.94,0
210,0.36,0.05,0.93,0
211,0.36,0.05,0.93,0
212,0.36,0.05,0.92,0
213,0.37,0.06,0.93,0
214,0.36,0.06,0.94,0
215,0.37,0.06,0.92,0
216,0.36,0.06,0.91,0
217,0.36,0.07,0.95,0
218,0.35,0.07,0.95,0
219,0.36,0.06,0.96,0
220,0.37,0.04,0.96,0
221,0.35,0.05,0.94,0
222,0.35,0.06,0.94,0
223,0.36,0.06,0.93,0
224,0.36,0.07,0.93,0
225,0.36,0.07,0.95,0
226,0.36,0.06,0.95,0
227,0.36,0.06,0.95,0
228,0.36,0.06,0.94,0
229,0.36,0.07,0.95,0
230,0.35,0.07,0.95,0
231,0.36,0.06,0.94,0
232,0.36,0.06,0.93,0
233,0.35,0.06,0.94,0
234,0.36,0.07,0.95,0
235,0.35,0.07,0.94,0
236,0.35,0.06,0.95,0
237,0.35,0.07,0.94,0
238,0.36,0.06,0.94,0
239,0.35,0.07,0.94,0
240,0.36,0.07,0.94,0
241,0.35,0.07,0.94,0
242,0.35,0.07,0.94,0
243,0.36,0.06,0.94,0
244,0.35,0.07,0.94,0
245,0.35,0.07,0.94,0
246,0.35,0.08,0.94,0
247,0.36,0.08,0.96,0
248,0.36,0.08,0.95,0
249,0.35,0.09,0.94,0
250,0.35,0.08,0.94,0
251,0.35,0.07,0.94,0
252,0.35,0.07,0.94,0
253,0.35,0.08,0.94,0
254,0.35,0.07,0.94,0
255,0.35,0.07,0.95,0
256,0.36,0.08,0.95,0
257,0.35,0.07,0.95,0
258,0.36,0.07,0.94,0
259,0.35,0.07,0.94,0
260,0.35,0.07,0.94,0
261,0.35,0.07,0.95,0
262,0.35,0.06,0.95,0
263,0.35,0.07,0.95,0
264,0.35,0.07,0.95,0
265,0.35,0.06,0.94,0
266,0.35,0.07,0.95,0
267,0.35,0.06,0.95,0
268,0.35,0.06,0.95,0
269,0.35,0.06,0.94,0
270,0.35,0.06,0.95,0
271,0.35,0.06,0.95,0
272,0.35,0.06,0.95,0
273,0.35,0.06,0.95,0
274,0.35,0.07,0.95,0
275,0.35,0.06,0.95,0
276,0.35,0.06,0.94,0
277,0.35,0.06,0.94,0
278,0.35,0.06,0.95,0
279,0.35,0.06,0.95,0
280,0.35,0.06,0.95,0
281,0.35,0.06,0.95,0
282,0.35,0.06,0.95,0
283,0.35,0.06,0.95,0
284,0.35,0.07,0.94,0
285,0.35,0.06,0.94,0
286,0.35,0.06,0.94,0
287,0.35,0.07,0.95,0
288,0.35,0.06,0.95,0
289,0.35,0.06,0.95,0
290,0.35,0.06,0.95,0
291,0.35,0.06,0.95,0
292,0.35,0.06,0.95,0
293,0.35,0.05,0.94,0
294,0.35,0.06,0.94,0
295,0.35,0.06,0.94,0
296,0.35,0.06,0.94,0
297,0.35,0.06,0.95,0
298,0.35,0.06,0.95,0
299,0.35,0.07,0.95,0
300,0.35,0.07,0.94,0
301,0.35,0.06,0.94,0
302,0.35,0.07,0.95,0
303,0.35,0.07,0.95,0
304,0.36,0.06,0.94,0
305,0.35,0.06,0.96,0
306,0.35,0.06,0.95,0
307,0.35,0.06,0.95,0
308,0.35,0.06,0.94,0
309,0.35,0.06,0.94,0
310,0.35,0.06,0.94,0
311,0.35,0.07,0.94,0
312,0.35,0.07,0.95,0
313,0.35,0.06,0.95,0
314,0.35,0.07,0.95,0
315,0.36,0.06,0.96,0
316,0.35,0.06,0.95,0
317,0.35,0.06,0.94,0
318,0.35,0.06,0.94,0
319,0.35,0.07,0.94,0
320,0.35,0.07,0.95,0
321,0.35,0.07,0.94,0
322,0.35,0.07,0.95,0
323,0.34,0.06,0.95,0
324,0.34,0.07,0.95,0
325,0.35,0.06,0.96,0
326,0.35,0.07,0.95,0
327,0.35,0.07,0.95,0
328,0.35,0.06,0.95,0
329,0.34,0.08,0.95,0
330,0.34,0.07,0.95,0
331,0.33,0.08,0.96,0
332,0.35,0.06,0.95,0
333,0.3,0.08,0.93,0
334,0.39,0.03,0.97,0
335,0.27,0.09,0.95,0
336,0.33,0.04,0.95,0
337,0.31,0.07,0.96,0
338,0.3,0.07,0.97,0
339,0.28,0.09,0.98,0
340,0.28,0.06,1.0,0
341,0.4,0.06,0.98,0
342,0.34,0.05,0.9,0
343,0.34,0.08,0.9,0
344,0.35,0.07,0.93,0
345,0.35,0.06,0.92,0
346,0.35,0.06,0.92,0
347,0.35,0.07,0.95,0
348,0.35,0.07,0.96,0
349,0.35,0.07,0.96,0
350,0.35,0.07,0.95,3
351,0.36,0.08,0.95,3
352,0.35,0.07,0.94,3
353,0.35,0.06,0.94,3
354,0.35,0.07,0.95,3
355,0.35,0.07,0.95,3
356,0.35,0.06,0.95,3
357,0.35,0.06,0.94,3
358,0.35,0.06,0.95,3
359,0.35,0.07,0.94,3
360,0.35,0.07,0.95,3
361,0.35,0.07,0.94,3
362,0.35,0.08,0.95,3
363,0.35,0.06,0.95,3
364,0.35,0.07,0.95,3
365,0.35,0.07,0.94,3
366,0.36,0.07,0.95,3
367,0.35,0.07,0.95,3
368,0.36,0.06,0.94,3
369,0.35,0.07,0.94,3
370,0.38,0.04,0.94,3
371,0.34,0.04,0.91,3
372,0.28,0.05,0.93,3
373,0.2,0.08,0.99,3
374,0.21,0.1,1.32,3
375,0.14,0.27,1.98,3
376,0.38,0.45,2.66,3
377,0.4,0.52,2.44,3
378,0.96,0.47,2.02,3
379,0.64,0.51,1.34,3
380,0.82,0.46,0.84,3
381,0.47,0.38,0.21,3
382,0.11,0.24,-0.04,3
383,0.21,0.09,-0.17,3
384,-0.19,-0.07,-0.41,3
385,-0.15,-0.17,-0.36,3
386,-0.26,-0.13,-0.31,3
387,-0.2,-0.01,-0.29,3
388,-0.1,0.12,-0.22,3
389,-0.17,0.25,-0.08,3
390,0.28,0.45,0.65,3
391,0.16,0.66,0.91,3
392,1.35,0.79,1.38,3
393,0.85,0.89,1.6,3
394,1.32,0.81,2.18,3
395,0.6,1.03,2.32,3
396,0.12,1.21,2.15,3
397,0.23,1.18,1.89,3
398,0.37,1.17,2.05,3
399,0.57,1.24,2.1,3
400,0.87,0.99,1.86,3
401,0.62,0.9,1.16,3
402,0.65,0.74,0.59,3
403,0.37,0.44,0.09,3
404,0.09,0.16,-0.15,3
405,-0.04,-0.02,-0.2,3
406,-0.17,-0.24,-0.3,3
407,-0.24,-0.34,-0.35,3
408,-0.1,-0.35,-0.35,3
409,-0.1,-0.27,-0.33,3
410,-0.14,-0.19,-0.26,3
411,-0.07,-0.02,-0.11,3
412,0.27,0.05,0.44,3
413,0.3,0.25,1.0,3
414,0.46,0.19,1.5,3
415,0.56,0.44,1.9,3
416,0.37,0.3,1.91,3
417,0.53,0.37,1.86,3
418,0.29,0.31,1.69,3
419,0.28,0.31,1.46,3
420,0.32,0.22,1.27,3
421,0.28,0.24,1.06,3
422,0.44,0.21,0.99,3
423,0.35,0.13,0.89,3
424,0.43,0.12,0.88,3
425,0.44,0.11,0.88,3
426,0.45,0.11,0.87,3
427,0.48,0.11,0.89,3
428,0.45,0.11,0.89,3
429,0.47,0.14,0.91,3
430,0.46,0.13,0.87,3
431,0.48,0.15,0.88,3
432,0.47,0.14,0.89,3
433,0.46,0.16,0.86,3
434,0.46,0.17,0.87,3
435,0.46,0.15,0.86,3
436,0.46,0.14,0.86,3
437,0.46,0.13,0.87,3
438,0.46,0.16,0.88,3
439,0.46,0.13,0.87,3
440,0.46,0.14,0.88,3
441,0.38,0.16,0.87,3
442,0.51,0.14,0.91,3
443,0.38,0.11,0.88,3
444,0.47,0.14,0.89,3
445,0.44,0.19,0.93,3
446,0.43,0.15,0.94,3
447,0.39,0.18,0.92,3
448,0.48,0.1,0.81,3
449,0.45,0.18,0.86,3
450,0.43,0.11,0.89,3
451,0.4,0.18,0.9,3
452,0.45,0.17,0.89,3
453,0.44,0.14,0.94,3
454,0.43,0.13,0.94,3
455,0.47,0.13,0.88,3
456,0.44,0.16,0.86,3
457,0.52,0.1,0.86,3
458,0.46,0.15,0.85,3
459,0.46,0.15,0.86,3
460,0.47,0.13,0.88,3
461,0.47,0.14,0.87,3
462,0.47,0.14,0.89,3
463,0.47,0.14,0.88,3
464,0.47,0.14,0.87,3
465,0.47,0.13,0.87,3
466,0.47,0.13,0.87,3
467,0.47,0.14,0.87,3
468,0.46,0.14,0.87,3
469,0.47,0.13,0.87,3
470,0.47,0.13,0.86,3
471,0.46,0.14,0.86,3
472,0.47,0.13,0.87,3
473,0.47,0.14,0.86,3
474,0.46,0.14,0.87,3
475,0.47,0.13,0.88,0
476,0.47,0.13,0.87,0
477,0.47,0.13,0.87,0
478,0.47,0.13,0.87,0
479,0.47,0.13,0.87,0
480,0.47,0.13,0.86,0
481,0.47,0.13,0.87,0
482,0.47,0.13,0.86,0
483,0.47,0.13,0.87,0
484,0.47,0.13,0.87,0
485,0.46,0.13,0.87,0
486,0.47,0.13,0.87,0
487,0.46,0.13,0.87,0
488,0.47,0.13,0.87,0
489,0.46,0.13,0.86,0
490,0.47,0.13,0.87,0
491,0.47,0.14,0.87,0
492,0.46,0.13,0.87,0
493,0.46,0.12,0.87,0
494,0.46,0.13,0.87,0
495,0.47,0.13,0.87,0
496,0.47,0.13,0.88,0
497,0.46,0.13,0.87,0
498,0.46,0.13,0.87,0
499,0.47,0.13,0.87,0
500,0.46,0.13,0.87,0
501,0.46,0.13,0.86,0
502,0.47,0.13,0.87,0
503,0.47,0.13,0.87,0
504,0.46,0.13,0.87,0
505,0.46,0.13,0.86,0
506,0.47,0.13,0.87,0
507,0.47,0.13,0.87,0
508,0.47,0.12,0.87,0
509,0.46,0.13,0.87,0
510,0.46,0.12,0.87,0
511,0.47,0.12,0.87,0
512,0.47,0.13,0.87,0
513,0.47,0.13,0.87,0
514,0.47,0.13,0.87,0
515,0.46,0.12,0.87,0
516,0.46,0.12,0.86,0
517,0.47,0.12,0.87,0
518,0.47,0.13,0.87,0
519,0.47,0.13,0.87,0
520,0.46,0.13,0.87,0
521,0.46,0.12,0.87,0
522,0.46,0.13,0.88,0
523,0.46,0.13,0.87,0
524,0.47,0.13,0.87,0
525,0.47,0.13,0.87,0
526,0.46,0.13,0.87,0
527,0.46,0.13,0.86,0
528,0.47,0.13,0.87,0
529,0.47,0.13,0.87,0
530,0.47,0.13,0.87,0
531,0.47,0.14,0.87,0
532,0.47,0.13,0.87,0
533,0.47,0.14,0.87,0
534,0.47,0.14,0.87,0
535,0.46,0.14,0.87,0
536,0.47,0.16,0.87,0
537,0.47,0.16,0.88,0
538,0.47,0.15,0.87,0
539,0.46,0.15,0.87,0
540,0.46,0.15,0.87,0
541,0.46,0.15,0.86,0
542,0.46,0.14,0.86,0
543,0.46,0.14,0.87,0
544,0.46,0.14,0.87,0
545,0.46,0.14,0.87,0
546,0.46,0.16,0.87,0
547,0.46,0.14,0.88,0
548,0.46,0.14,0.87,0
549,0.46,0.14,0.87,0
550,0.46,0.12,0.88,0
551,0.46,0.13,0.88,0
552,0.46,0.13,0.87,0
553,0.46,0.14,0.87,0
554,0.46,0.16,0.88,0
555,0.46,0.16,0.87,0
556,0.46,0.15,0.87,0
557,0.46,0.15,0.87,0
558,0.46,0.16,0.87,0
559,0.46,0.16,0.87,0
560,0.46,0.14,0.87,0
561,0.46,0.14,0.87,0
562,0.46,0.14,0.87,0
563,0.46,0.14,0.87,0
564,0.46,0.14,0.88,0
565,0.46,0.15,0.87,0
566,0.46,0.15,0.88,0
567,0.46,0.14,0.87,0
568,0.46,0.15,0.87,0
569,0.46,0.15,0.87,0
570,0.46,0.15,0.87,0
571,0.46,0.14,0.87,0
572,0.46,0.15,0.88,0
573,0.46,0.15,0.88,0
574,0.46,0.14,0.88,0
575,0.46,0.14,0.88,0
576,0.46,0.15,0.87,0
577,0.46,0.14,0.87,0
578,0.46,0.14,0.87,0
579,0.46,0.13,0.87,0
580,0.46,0.13,0.87,0
581,0.46,0.13,0.87,0
582,0.46,0.14,0.88,0
583,0.46,0.13,0.88,0
584,0.46,0.14,0.88,0
585,0.46,0.13,0.88,0
586,0.46,0.14,0.88,0
587,0.46,0.15,0.87,0
588,0.46,0.14,0.87,0
589,0.46,0.15,0.87,0
590,0.46,0.15,0.88,0
591,0.46,0.14,0.88,0
592,0.46,0.13,0.88,0
593,0.46,0.14,0.88,0
594,0.46,0.13,0.87,0
595,0.46,0.13,0.87,0
596,0.46,0.13,0.87,0
597,0.46,0.14,0.88,0
598,0.46,0.14,0.88,0
599,0.46,0.14,0.87,0
600,0.46,0.15,0.88,0
601,0.46,0.14,0.88,0
602,0.46,0.14,0.87,0
603,0.46,0.14,0.87,0
604,0.46,0.13,0.87,0
605,0.46,0.13,0.87,0
606,0.46,0.14,0.87,0
607,0.46,0.14,0.88,0
608,0.46,0.13,0.87,0
609,0.46,0.14,0.88,0
610,0.46,0.14,0.88,0
611,0.46,0.14,0.87,0
612,0.46,0.14,0.87,0
613,0.46,0.14,0.87,0
614,0.46,0.14,0.87,0
615,0.46,0.13,0.88,0
616,0.46,0.13,0.87,0
617,0.46,0.14,0.87,0
618,0.46,0.14,0.88,0
619,0.46,0.13,0.88,0
620,0.46,0.14,0.88,0
621,0.46,0.14,0.88,0
622,0.46,0.14,0.88,0
623,0.46,0.14,0.87,0
624,0.46,0.14,0.87,0
625,0.46,0.14,0.88,0
626,0.46,0.14,0.87,0
627,0.46,0.14,0.87,0
628,0.46,0.14,0.88,0
629,0.46,0.14,0.88,0
630,0.46,0.14,0.88,0
631,0.46,0.14,0.88,0
632,0.46,0.14,0.87,0
633,0.46,0.14,0.88,0
634,0.46,0.14,0.87,0
635,0.46,0.14,0.88,0
636,0.46,0.14,0.88,0
637,0.46,0.14,0.87,0
638,0.46,0.14,0.87,0
639,0.46,0.14,0.87,0
640,0.46,0.14,0.87,0
641,0.46,0.14,0.87,0
642,0.46,0.14,0.88,0
643,0.46,0.14,0.88,0
644,0.46,0.14,0.88,0
645,0.46,0.14,0.88,0
646,0.46,0.15,0.88,0
647,0.46,0.14,0.87,0
648,0.46,0.14,0.87,0
649,0.46,0.14,0.87,0
650,0.46,0.14,0.87,0
651,0.46,0.14,0.88,0
652,0.46,0.13,0.88,0
653,0.46,0.13,0.88,0
654,0.46,0.14,0.89,0
655,0.46,0.14,0.87,0
656,0.46,0.14,0.87,0
657,0.46,0.14,0.87,0
658,0.46,0.14,0.87,0
659,0.46,0.14,0.87,0
660,0.46,0.14,0.88,0
661,0.46,0.14,0.88,0
662,0.46,0.13,0.88,0
663,0.46,0.14,0.88,0
664,0.46,0.13,0.88,0
665,0.46,0.14,0.87,0
666,0.46,0.14,0.87,0
667,0.46,0.15,0.87,0
668,0.46,0.14,0.88,0
669,0.46,0.14,0.88,0
670,0.46,0.14,0.88,0
671,0.46,0.15,0.89,0
672,0.44,0.15,0.88,0
673,0.45,0.14,0.88,0
674,0.45,0.15,0.89,0
675,0.45,0.14,0.9,0
676,0.44,0.13,0.9,0
677,0.44,0.14,0.9,0
678,0.45,0.13,0.9,0
679,0.44,0.14,0.89,0
680,0.45,0.13,0.89,0
681,0.44,0.14,0.89,0
682,0.43,0.12,0.89,0
683,0.45,0.14,0.89,0
684,0.42,0.15,0.89,0
685,0.44,0.1,0.89,0
686,0.41,0.17,0.89,0
687,0.38,0.17,0.9,0
688,0.42,0.14,0.94,0
689,0.42,0.14,0.93,0
690,0.41,0.15,0.94,0
691,0.41,0.16,0.96,0
692,0.44,0.12,0.91,0
693,0.43,0.14,0.88,0
694,0.42,0.16,0.89,0
695,0.43,0.14,0.87,0
696,0.44,0.14,0.87,0
697,0.43,0.15,0.88,0
698,0.44,0.14,0.88,0
699,0.45,0.14,0.89,0
700,0.43,0.16,0.89,3
701,0.46,0.13,0.9,3
702,0.45,0.14,0.89,3
703,0.45,0.14,0.88,3
704,0.45,0.13,0.89,3
705,0.45,0.14,0.89,3
706,0.45,0.13,0.88,3
707,0.45,0.13,0.89,3
708,0.46,0.13,0.89,3
709,0.45,0.13,0.88,3
710,0.46,0.13,0.89,3
711,0.45,0.13,0.89,3
712,0.45,0.14,0.89,3
713,0.45,0.13,0.89,3
714,0.45,0.13,0.89,3
715,0.46,0.13,0.89,3
716,0.46,0.12,0.88,3
717,0.46,0.12,0.9,3
718,0.45,0.1,0.95,3
719,0.37,0.08,1.01,3
720,0.31,0.01,1.09,3
721,0.23,-0.05,1.36,3
722,0.21,0.04,1.82,3
723,0.28,0.17,2.22,3
724,0.46,0.2,2.12,3
725,0.63,0.26,1.58,3
726,0.47,0.32,0.85,3
727,0.57,0.38,0.37,3
728,0.62,0.29,0.13,3
729,0.07,0.13,-0.04,3
730,0.02,0.03,0.3,3
731,-0.36,0.12,0.67,3
732,-0.75,0.08,1.12,3
733,-0.52,0.08,1.38,3
734,-0.32,0.02,1.32,3
735,0.24,-0.15,1.11,3
736,0.45,-0.53,0.67,3
737,0.87,-0.67,0.16,3
738,0.97,-0.91,-0.45,3
739,0.94,-1.04,-0.8,3
740,0.84,-1.03,-0.88,3
741,0.74,-0.92,-0.86,3
742,0.72,-0.77,-0.79,3
743,0.67,-0.42,-0.8,3
744,0.61,-0.24,-0.66,3
745,0.77,0.06,-0.48,3
746,0.83,0.16,0.11,3
747,1.08,0.51,1.3,3
748,0.8,0.36,1.89,3
749,1.06,0.32,1.85,3
750,0.68,0.26,1.62,3
751,0.73,0.33,1.54,3
752,0.48,0.39,1.46,3
753,0.48,0.38,1.23,3
754,0.58,0.46,1.09,3
755,0.6,0.53,0.93,3
756,0.72,0.55,0.87,3
757,0.8,0.47,0.83,3
758,0.85,0.4,0.79,3
759,0.79,0.25,0.59,3
760,0.94,0.14,0.46,3
761,1.2,-0.04,0.34,3
762,1.24,-0.09,0.12,3
763,1.23,-0.25,0.16,3
764,0.99,-0.23,0.25,3
765,0.95,-0.21,0.44,3
766,0.73,-0.15,0.56,3
767,0.72,-0.1,0.65,3
768,0.66,-0.06,0.67,3
769,0.76,-0.05,0.62,3
770,0.86,-0.1,0.48,3
771,0.93,-0.04,0.41,3
772,1.0,-0.04,0.39,3
773,1.0,0.04,0.43,3
774,0.96,0.07,0.52,3
775,0.88,0.18,0.66,3
776,0.74,0.35,0.77,3
777,0.9,0.28,0.87,3
778,0.65,0.47,0.76,3
779,0.77,0.36,0.79,3
780,0.63,0.34,0.68,3
781,0.76,0.24,0.67,3
782,0.83,0.17,0.61,3
783,0.74,0.17,0.58,3
784,0.87,0.08,0.59,3
785,0.81,0.05,0.55,3
786,0.85,0.01,0.55,3
787,0.86,-0.01,0.54,3
788,0.84,0.0,0.54,3
789,0.82,0.01,0.51,3
790,0.84,0.02,0.53,3
791,0.85,0.03,0.52,3
792,0.87,0.05,0.55,3
793,0.84,0.04,0.54,3
794,0.85,0.03,0.53,3
795,0.85,0.04,0.55,3
796,0.84,0.04,0.51,3
797,0.84,0.04,0.53,3
798,0.86,0.03,0.54,3
799,0.84,0.05,0.57,3
800,0.84,0.02,0.55,3
801,0.79,0.07,0.54,3
802,0.83,0.04,0.55,3
803,0.76,0.08,0.6,3
804,0.81,0.04,0.6,3
805,0.77,0.06,0.58,3
806,0.83,0.05,0.59,3
807,0.78,0.06,0.61,3
808,0.82,0.09,0.65,3
809,0.8,0.08,0.63,3
810,0.82,0.0,0.53,3
811,0.8,0.11,0.54,3
812,0.81,-0.01,0.54,3
813,0.74,0.1,0.56,3
814,0.8,0.09,0.61,3
815,0.78,0.09,0.63,3
816,0.82,0.01,0.61,3
817,0.85,0.08,0.57,3
818,0.8,0.08,0.57,3
819,0.79,0.03,0.59,3
820,0.8,0.05,0.58,3
821,0.78,0.06,0.56,3
822,0.83,0.05,0.6,3
823,0.78,0.05,0.6,3
824,0.8,0.03,0.59,3
825,0.77,0.05,0.6,0
826,0.8,0.04,0.58,0
827,0.81,0.05,0.59,0
828,0.79,0.05,0.59,0
829,0.81,0.05,0.6,0
830,0.78,0.04,0.6,0
831,0.79,0.04,0.59,0
832,0.8,0.05,0.59,0
833,0.79,0.04,0.6,0
834,0.79,0.05,0.59,0
835,0.79,0.04,0.59,0
836,0.78,0.05,0.6,0
837,0.79,0.05,0.6,0
838,0.81,0.05,0.59,0
839,0.8,0.05,0.59,0
840,0.79,0.05,0.59,0
841,0.79,0.04,0.59,0
842,0.8,0.05,0.59,0
843,0.78,0.04,0.59,0
844,0.82,0.05,0.6,0
845,0.79,0.04,0.59,0
846,0.79,0.05,0.59,0
847,0.84,0.07,0.59,0
848,0.79,0.05,0.59,0
849,0.81,0.05,0.59,0
850,0.81,0.06,0.58,0
851,0.8,0.06,0.59,0
852,0.8,0.05,0.59,0
853,0.8,0.05,0.59,0
854,0.8,0.05,0.58,0
855,0.8,0.05,0.58,0
856,0.8,0.05,0.59,0
857,0.79,0.06,0.58,0
858,0.81,0.05,0.58,0
859,0.8,0.06,0.59,0
860,0.8,0.05,0.59,0
861,0.8,0.05,0.59,0
862,0.81,0.06,0.59,0
863,0.8,0.05,0.58,0
864,0.8,0.05,0.59,0
865,0.79,0.05,0.58,0
866,0.81,0.05,0.58,0
867,0.81,0.06,0.59,0
868,0.8,0.05,0.59,0
869,0.8,0.05,0.59,0
870,0.8,0.05,0.59,0
871,0.81,0.05,0.59,0
872,0.8,0.05,0.58,0
873,0.81,0.05,0.58,0
874,0.8,0.05,0.58,0
875,0.81,0.05,0.59,0
876,0.79,0.05,0.58,0
877,0.81,0.05,0.59,0
878,0.81,0.05,0.58,0
879,0.81,0.06,0.58,0
880,0.8,0.05,0.58,0
881,0.81,0.05,0.58,0
882,0.8,0.05,0.58,0
883,0.81,0.05,0.59,0
884,0.81,0.05,0.58,0
885,0.81,0.05,0.58,0
886,0.81,0.05,0.59,0
887,0.8,0.05,0.59,0
888,0.81,0.04,0.58,0
889,0.8,0.05,0.58,0
890,0.81,0.05,0.59,0
891,0.8,0.05,0.58,0
892,0.8,0.05,0.58,0
893,0.81,0.05,0.58,0
894,0.81,0.05,0.59,0
895,0.8,0.05,0.59,0
896,0.8,0.05,0.59,0
897,0.81,0.05,0.58,0
898,0.81,0.05,0.59,0
899,0.8,0.05,0.58,0
900,0.81,0.05,0.58,0
901,0.81,0.05,0.58,0
902,0.81,0.05,0.59,0
903,0.8,0.05,0.59,0
904,0.79,0.05,0.59,0
905,0.82,0.06,0.58,0
906,0.8,0.05,0.58,0
907,0.8,0.05,0.58,0
908,0.8,0.05,0.58,0
909,0.8,0.05,0.59,0
910,0.81,0.06,0.59,0
911,0.8,0.06,0.59,0
912,0.8,0.05,0.59,0
913,0.8,0.06,0.59,0
914,0.77,0.07,0.61,0
915,0.81,0.07,0.6,0
916,0.74,0.08,0.64,0
917,0.81,0.03,0.62,0
918,0.76,0.06,0.64,0
919,0.75,0.07,0.67,0
920,0.77,0.06,0.62,0
921,0.73,0.1,0.65,0
922,0.76,0.09,0.68,0
923,0.73,0.09,0.68,0
924,0.8,0.07,0.63,0
925,0.76,0.06,0.6,0
926,0.77,0.05,0.6,0
927,0.76,0.06,0.6,0
928,0.78,0.06,0.6,0
929,0.77,0.06,0.61,0
930,0.78,0.05,0.61,0
931,0.76,0.07,0.61,0
932,0.78,0.05,0.62,0
933,0.77,0.06,0.61,0
934,0.78,0.06,0.61,0
935,0.77,0.06,0.62,0
936,0.77,0.05,0.62,0
937,0.77,0.05,0.62,0
938,0.77,0.06,0.61,0
939,0.78,0.05,0.61,0
940,0.77,0.06,0.61,0
941,0.78,0.06,0.6,0
942,0.77,0.06,0.61,0
943,0.77,0.06,0.61,0
944,0.77,0.06,0.61,0
945,0.78,0.07,0.61,0
946,0.77,0.07,0.62,0
947,0.77,0.07,0.62,0
948,0.77,0.06,0.61,0
949,0.77,0.07,0.61,0
950,0.77,0.07,0.61,3
951,0.76,0.07,0.61,3
952,0.77,0.07,0.62,3
953,0.76,0.07,0.62,3
954,0.77,0.07,0.61,3
955,0.77,0.07,0.61,3
956,0.77,0.08,0.62,3
957,0.76,0.07,0.61,3
958,0.77,0.07,0.62,3
959,0.77,0.07,0.63,3
960,0.77,0.07,0.62,3
961,0.76,0.07,0.61,3
962,0.77,0.07,0.62,3
963,0.77,0.07,0.62,3
964,0.76,0.07,0.62,3
965,0.76,0.07,0.6,3
966,0.78,0.08,0.61,3
967,0.77,0.07,0.6,3
968,0.76,0.07,0.6,3
969,0.8,0.02,0.61,3
970,0.77,0.06,0.64,3
971,0.76,0.03,0.67,3
972,0.72,0.09,0.83,3
973,0.6,0.14,1.09,3
974,1.13,0.31,1.8,3
975,1.0,0.61,2.12,3
976,1.4,0.71,1.99,3
977,1.47,0.74,1.5,3
978,1.26,0.68,1.06,3
979,0.83,0.6,0.64,3
980,0.51,0.53,0.27,3
981,0.34,0.44,0.07,3
982,-0.02,0.22,-0.24,3
983,-0.02,-0.06,-0.46,3
984,-0.13,-0.24,-0.52,3
985,-0.18,-0.16,-0.41,3
986,-0.26,0.06,-0.38,3
987,-0.12,0.21,-0.24,3
988,0.2,0.41,0.04,3
989,0.4,0.47,0.72,3
990,0.71,0.57,1.42,3
991,0.8,0.23,1.82,3
992,1.02,0.19,2.06,3
993,0.89,0.12,1.88,3
994,0.78,0.15,1.81,3
995,0.53,0.17,1.53,3
996,0.52,0.27,1.27,3
997,0.6,0.25,0.99,3
998,0.53,0.24,0.81,3
999,0.59,0.2,0.75,3
1000,0.52,0.19,0.76,3
1001,0.54,0.22,0.75,3
1002,0.59,0.21,0.76,3
1003,0.58,0.22,0.75,3
1004,0.66,0.2,0.74,3
1005,0.69,0.14,0.74,3
1006,0.74,0.04,0.73,3
1007,0.75,-0.07,0.73,3
1008,0.59,-0.1,0.7,3
1009,0.7,-0.09,0.74,3
1010,0.61,0.04,0.75,3
1011,0.62,0.2,0.82,3
1012,0.64,0.26,0.81,3
1013,0.7,0.25,0.76,3
1014,0.67,0.18,0.64,3
1015,0.64,0.15,0.63,3
1016,0.77,0.11,0.74,3
1017,0.73,0.03,0.72,3
1018,0.72,0.02,0.67,3
1019,0.71,0.03,0.6,3
1020,0.78,0.06,0.68,3
1021,0.78,0.06,0.7,3
1022,0.76,0.09,0.69,3
1023,0.77,0.07,0.68,3
1024,0.76,0.05,0.67,3
1025,0.74,0.06,0.67,3
1026,0.76,0.03,0.67,3
1027,0.76,0.02,0.66,3
1028,0.77,0.03,0.65,3
1029,0.74,0.02,0.61,3
1030,0.73,0.05,0.65,3
1031,0.73,0.03,0.68,3
1032,0.7,0.04,0.74,3
1033,0.66,-0.01,0.7,3
1034,0.73,0.08,0.71,3
1035,0.66,0.05,0.74,3
1036,0.73,0.05,0.77,3
1037,0.74,-0.02,0.72,3
1038,0.64,0.06,0.67,3
1039,0.75,0.03,0.7,3
1040,0.67,0.05,0.69,3
1041,0.73,0.05,0.68,3
1042,0.72,0.03,0.72,3
1043,0.72,0.04,0.76,3
1044,0.74,0.0,0.72,3
1045,0.72,0.05,0.69,3
1046,0.73,0.04,0.7,3
1047,0.73,0.05,0.71,3
1048,0.73,0.04,0.7,3
1049,0.73,0.04,0.68,2
1050,0.72,0.05,0.69,0
1051,0.75,0.03,0.68,0
1052,0.72,0.04,0.67,0
1053,0.73,0.04,0.68,0
1054,0.74,0.04,0.69,0
1055,0.73,0.04,0.68,0
1056,0.73,0.04,0.69,0
1057,0.73,0.04,0.69,0
1058,0.73,0.04,0.68,0
1059,0.73,0.04,0.69,0
1060,0.73,0.04,0.69,0
1061,0.73,0.04,0.69,0
1062,0.73,0.04,0.69,0
1063,0.73,0.04,0.68,0
1064,0.73,0.04,0.68,0
1065,0.73,0.04,0.69,0
1066,0.73,0.04,0.69,0
1067,0.73,0.04,0.7,0
1068,0.73,0.04,0.69,0
1069,0.73,0.03,0.69,0
1070,0.73,0.03,0.68,0
1071,0.73,0.04,0.68,0
1072,0.73,0.04,0.69,0
1073,0.73,0.04,0.68,0
1074,0.73,0.04,0.69,0
1075,0.73,0.04,0.7,0
1076,0.73,0.04,0.7,0
1077,0.73,0.05,0.69,0
1078,0.73,0.04,0.69,0
1079,0.73,0.04,0.69,0
1080,0.73,0.05,0.68,0
1081,0.73,0.05,0.69,0
1082,0.73,0.05,0.7,0
1083,0.73,0.05,0.7,0
1084,0.73,0.04,0.7,0
1085,0.73,0.04,0.7,0
1086,0.73,0.04,0.69,0
1087,0.73,0.04,0.69,0
1088,0.73,0.04,0.7,0
1089,0.73,0.04,0.7,0
1090,0.73,0.04,0.69,0
1091,0.73,0.04,0.69,0
1092,0.73,0.05,0.69,0
1093,0.73,0.05,0.7,0
1094,0.73,0.04,0.7,0
1095,0.73,0.04,0.69,0
1096,0.73,0.05,0.7,0
1097,0.73,0.05,0.69,0
1098,0.73,0.04,0.69,0
1099,0.73,0.05,0.69,0
1100,0.73,0.05,0.7,0
1101,0.73,0.05,0.7,0
1102,0.73,0.05,0.69,0
1103,0.73,0.05,0.69,0
1104,0.73,0.05,0.69,0
1105,0.73,0.05,0.69,0
1106,0.73,0.05,0.7,0
1107,0.73,0.05,0.69,0
1108,0.73,0.05,0.7,0
1109,0.73,0.05,0.7,0
1110,0.73,0.05,0.69,0
1111,0.73,0.05,0.69,0
1112,0.73,0.05,0.69,0
1113,0.73,0.05,0.69,0
1114,0.73,0.05,0.7,0
1115,0.73,0.05,0.69,0
1116,0.73,0.06,0.7,0
1117,0.73,0.06,0.7,0
1118,0.73,0.05,0.7,0
1119,0.73,0.06,0.7,0
1120,0.73,0.05,0.69,0
1121,0.73,0.05,0.69,0
1122,0.73,0.05,0.69,0
1123,0.73,0.06,0.69,0
1124,0.73,0.05,0.7,0
1125,0.73,0.05,0.69,0
1126,0.73,0.05,0.7,0
1127,0.73,0.05,0.69,0
1128,0.73,0.05,0.69,0
1129,0.73,0.05,0.69,0
1130,0.73,0.05,0.69,0
1131,0.73,0.05,0.69,0
1132,0.73,0.05,0.69,0
1133,0.73,0.05,0.7,0
1134,0.73,0.05,0.69,0
1135,0.73,0.05,0.69,0
1136,0.73,0.05,0.69,0
1137,0.73,0.05,0.69,0
1138,0.73,0.05,0.68,0
1139,0.73,0.05,0.68,0
1140,0.73,0.05,0.68,0
1141,0.73,0.05,0.68,0
1142,0.74,0.06,0.7,0
1143,0.76,0.08,0.74,0
1144,0.74,0.07,0.7,0
1145,0.68,0.05,0.62,0
1146,0.69,0.08,0.61,0
1147,0.7,0.03,0.64,0
1148,0.73,0.01,0.7,0
1149,0.73,0.01,0.74,0
1150,0.74,0.0,0.75,0
1151,0.68,0.0,0.69,0
1152,0.75,0.04,0.65,0
1153,0.8,0.07,0.68,0
1154,0.73,0.07,0.65,0
1155,0.75,0.05,0.67,0
1156,0.73,0.07,0.68,0
1157,0.73,0.06,0.68,0
1158,0.74,0.06,0.67,0
1159,0.73,0.05,0.67,0
1160,0.73,0.02,0.67,0
1161,0.73,0.03,0.66,0
1162,0.74,0.03,0.67,0
1163,0.75,0.03,0.67,0
1164,0.74,0.04,0.67,0
1165,0.74,0.04,0.66,0
1166,0.76,0.07,0.66,0
1167,0.76,0.07,0.67,0
1168,0.76,0.08,0.67,0
1169,0.74,0.08,0.66,0
1170,0.75,0.09,0.67,0
1171,0.75,0.08,0.67,0
1172,0.73,0.08,0.66,0
1173,0.73,0.08,0.65,0
1174,0.74,0.04,0.65,0
1175,0.76,0.02,0.67,0
1176,0.72,0.07,0.65,0
1177,0.75,0.06,0.68,0
1178,0.76,0.06,0.68,0
1179,0.73,0.08,0.67,0
1180,0.73,0.06,0.67,0
1181,0.73,0.07,0.68,0
1182,0.71,0.05,0.66,0
1183,0.75,0.07,0.69,0
1184,0.68,0.04,0.67,0
1185,0.75,0.06,0.69,0
1186,0.72,0.07,0.71,0
1187,0.76,0.05,0.72,0
1188,0.71,0.03,0.71,0
1189,0.68,0.09,0.74,0
1190,0.69,0.06,0.72,0
1191,0.69,0.07,0.73,0
1192,0.72,0.06,0.73,0
1193,0.77,0.09,0.7,0
1194,0.7,0.06,0.65,0
1195,0.73,0.04,0.67,0
1196,0.73,0.1,0.69,0
1197,0.74,0.06,0.68,0
1198,0.73,0.07,0.68,0
1199,0.75,0.06,0.68,0
1200,0.73,0.06,0.69,3
1201,0.73,0.06,0.68,3
1202,0.73,0.07,0.68,3
1203,0.73,0.07,0.67,3
1204,0.74,0.07,0.67,3
1205,0.73,0.08,0.67,3
1206,0.73,0.08,0.68,3
1207,0.73,0.07,0.69,3
1208,0.73,0.08,0.69,3
1209,0.73,0.08,0.68,3
1210,0.73,0.08,0.69,3
1211,0.73,0.07,0.69,3
1212,0.73,0.07,0.68,3
1213,0.73,0.08,0.68,3
1214,0.73,0.08,0.69,3
1215,0.73,0.08,0.68,3
1216,0.73,0.07,0.69,3
1217,0.69,0.08,0.64,3
1218,0.64,0.1,0.67,3
1219,0.59,0.08,0.78,3
1220,0.64,0.13,1.19,3
1221,1.08,0.34,2.07,3
1222,0.98,0.58,2.47,3
1223,1.26,0.66,2.21,3
1224,1.72,0.65,1.57,3
1225,1.44,0.57,0.94,3
1226,0.93,0.49,0.51,3
1227,0.58,0.54,0.17,3
1228,-0.21,0.46,-0.32,3
1229,0.05,0.23,-0.47,3
1230,-0.07,0.09,-0.69,3
1231,-0.1,-0.04,-0.66,3
1232,-0.11,0.08,-0.61,3
1233,-0.07,0.22,-0.52,3
1234,0.17,0.36,-0.28,3
1235,0.32,0.48,0.47,3
1236,0.66,0.61,0.97,3
1237,1.43,1.11,1.47,3
1238,1.6,1.11,2.44,3
1239,1.11,1.19,2.87,3
1240,0.76,1.11,2.86,3
1241,0.4,1.1,2.46,3
1242,0.47,1.11,2.11,3
1243,0.94,1.07,2.03,3
1244,1.43,0.95,1.65,3
1245,0.55,0.94,0.93,3
1246,1.02,0.97,0.34,3
1247,0.21,0.62,-0.17,3
1248,-0.01,0.21,-0.46,3
1249,-0.02,0.0,-0.39,3
1250,-0.35,-0.22,-0.51,3
1251,-0.23,-0.28,-0.49,3
1252,-0.12,-0.21,-0.48,3
1253,-0.1,-0.09,-0.48,3
1254,0.05,0.12,-0.41,3
1255,0.3,0.23,0.03,3
1256,0.38,0.3,1.01,3
1257,0.44,0.38,1.54,3
1258,0.83,0.35,1.99,3
1259,0.92,0.29,1.85,3
1260,0.9,0.11,2.06,3
1261,0.59,-0.02,1.73,3
1262,0.77,-0.02,1.49,3
1263,0.6,-0.1,1.14,3
1264,0.84,-0.08,0.97,3
1265,0.67,0.01,0.78,3
1266,0.56,0.15,0.79,3
1267,0.54,0.29,0.81,3
1268,0.57,0.34,0.83,3
1269,0.55,0.26,0.8,3
1270,0.7,0.22,0.75,3
1271,0.61,0.13,0.73,3
1272,0.73,0.1,0.7,3
1273,0.71,0.1,0.71,3
1274,0.73,0.04,0.73,3
1275,0.69,0.01,0.74,3
1276,0.71,0.01,0.73,3
1277,0.73,0.04,0.73,3
1278,0.73,0.01,0.73,3
1279,0.72,0.02,0.73,3
1280,0.73,0.03,0.72,3
1281,0.73,0.02,0.69,3
1282,0.73,0.03,0.7,3
1283,0.73,0.03,0.68,3
1284,0.73,0.02,0.69,3
1285,0.72,0.02,0.72,3
1286,0.71,0.03,0.72,3
1287,0.75,0.0,0.67,3
1288,0.72,0.04,0.67,3
1289,0.75,0.03,0.71,3
1290,0.75,0.04,0.72,3
1291,0.77,0.04,0.75,3
1292,0.68,0.05,0.74,3
1293,0.73,-0.05,0.63,3
1294,0.69,0.09,0.69,3
1295,0.73,0.0,0.75,3
1296,0.69,0.03,0.74,3
1297,0.71,0.04,0.73,3
1298,0.7,0.03,0.73,3
1299,0.65,0.06,0.68,3
1300,0.73,0.06,0.65,3
1301,0.73,0.03,0.65,3
1302,0.74,0.06,0.68,3
1303,0.77,0.02,0.69,3
1304,0.73,0.03,0.68,3
1305,0.76,0.03,0.7,3
1306,0.74,0.02,0.69,3
1307,0.73,0.01,0.65,3
1308,0.74,0.01,0.66,3
1309,0.74,0.03,0.66,3
1310,0.75,0.02,0.64,3
1311,0.75,0.02,0.66,3
1312,0.75,0.02,0.67,3
1313,0.75,0.02,0.66,3
1314,0.75,0.02,0.67,3
1315,0.77,0.01,0.67,3
1316,0.75,0.01,0.66,3
1317,0.73,0.01,0.65,3
1318,0.75,0.01,0.64,3
1319,0.74,0.02,0.66,3
1320,0.74,0.02,0.67,3
1321,0.75,0.01,0.66,3
1322,0.74,0.01,0.67,3
1323,0.74,0.01,0.67,3
1324,0.75,0.01,0.68,3
1325,0.75,0.01,0.67,0
1326,0.74,0.01,0.67,0
1327,0.74,0.01,0.67,0
1328,0.74,0.01,0.67,0
1329,0.74,0.02,0.67,0
1330,0.74,0.01,0.67,0
1331,0.74,0.01,0.67,0
1332,0.74,0.01,0.67,0
1333,0.75,0.01,0.67,0
1334,0.73,0.01,0.67,0
1335,0.74,0.01,0.67,0
1336,0.74,0.02,0.67,0
1337,0.74,0.02,0.67,0
1338,0.74,0.01,0.67,0
1339,0.74,0.01,0.67,0
1340,0.74,0.02,0.67,0
1341,0.74,0.01,0.67,0
1342,0.74,0.01,0.67,0
1343,0.73,0.02,0.66,0
1344,0.74,0.01,0.66,0
1345,0.74,0.02,0.65,0
1346,0.74,0.02,0.66,0
1347,0.74,0.02,0.67,0
1348,0.74,0.02,0.68,0
1349,0.74,0.02,0.67,0
1350,0.74,0.02,0.67,0
1351,0.74,0.03,0.67,0
1352,0.74,0.02,0.67,0
1353,0.73,0.02,0.67,0
1354,0.75,0.02,0.68,0
1355,0.74,0.02,0.66,0
1356,0.74,0.02,0.67,0
1357,0.74,0.03,0.68,0
1358,0.74,0.02,0.67,0
1359,0.75,0.02,0.66,0
1360,0.74,0.02,0.67,0
1361,0.74,0.02,0.67,0
1362,0.74,0.02,0.67,0
1363,0.74,0.02,0.67,0
1364,0.74,0.02,0.67,0
1365,0.75,0.02,0.67,0
1366,0.74,0.02,0.66,0
1367,0.74,0.02,0.67,0
1368,0.74,0.02,0.66,0
1369,0.74,0.02,0.67,0
1370,0.74,0.02,0.68,0
1371,0.74,0.02,0.67,0
1372,0.74,0.02,0.68,0
1373,0.75,0.02,0.67,0
1374,0.74,0.02,0.66,0
1375,0.74,0.02,0.67,0
1376,0.74,0.02,0.67,0
1377,0.74,0.02,0.67,0
1378,0.73,0.02,0.67,0
1379,0.74,0.02,0.67,0
1380,0.74,0.02,0.67,0
1381,0.74,0.02,0.66,0
1382,0.74,0.01,0.66,0
1383,0.73,0.01,0.67,0
1384,0.74,0.02,0.68,0
1385,0.73,0.02,0.68,0
1386,0.74,0.01,0.71,0
1387,0.73,0.02,0.7,0
1388,0.73,0.01,0.7,0
1389,0.73,0.02,0.7,0
1390,0.73,0.02,0.7,0
1391,0.73,0.02,0.69,0
1392,0.73,0.02,0.69,0
1393,0.72,0.02,0.69,0
1394,0.73,0.02,0.7,0
1395,0.73,0.02,0.7,0
1396,0.72,0.02,0.7,0
1397,0.73,0.02,0.71,0
1398,0.73,0.02,0.71,0
1399,0.73,0.02,0.71,0
1400,0.72,0.02,0.71,0
1401,0.73,0.03,0.71,0
1402,0.73,0.02,0.71,0
1403,0.72,0.02,0.71,0
1404,0.72,0.02,0.71,0
1405,0.72,0.02,0.71,0
1406,0.72,0.02,0.72,0
1407,0.72,0.01,0.71,0
1408,0.71,0.02,0.72,0
1409,0.72,0.02,0.72,0
1410,0.72,0.02,0.72,0
1411,0.71,0.02,0.72,0
1412,0.71,0.03,0.72,0
1413,0.72,0.02,0.73,0
1414,0.71,0.02,0.72,0
1415,0.72,0.03,0.73,0
1416,0.7,0.03,0.73,0
1417,0.72,0.02,0.73,0
1418,0.68,0.02,0.73,0
1419,0.7,0.03,0.73,0
1420,0.69,0.03,0.74,0
1421,0.71,0.03,0.73,0
1422,0.69,0.02,0.73,0
1423,0.7,0.02,0.74,0
1424,0.69,0.02,0.74,0
1425,0.68,0.02,0.74,0
1426,0.68,0.03,0.72,0
1427,0.66,0.05,0.72,0
1428,0.7,0.02,0.73,0
1429,0.72,0.03,0.73,0
1430,0.66,0.02,0.79,0
1431,0.69,0.02,0.82,0
1432,0.63,0.04,0.76,0
1433,0.65,0.02,0.71,0
1434,0.76,0.09,0.67,0
1435,0.67,0.03,0.71,0
1436,0.69,0.03,0.74,0
1437,0.71,0.03,0.73,0
1438,0.71,0.02,0.73,0
1439,0.72,0.03,0.73,0
1440,0.71,0.04,0.72,0
1441,0.72,0.04,0.71,0
1442,0.71,0.04,0.7,0
1443,0.73,0.04,0.71,0
1444,0.7,0.03,0.7,0
1445,0.72,0.02,0.72,0
1446,0.72,0.02,0.71,0
1447,0.72,0.02,0.72,0
1448,0.72,0.02,0.72,0
1449,0.72,0.03,0.71,0
1450,0.73,0.02,0.72,3
1451,0.72,0.03,0.72,3
1452,0.72,0.03,0.71,3
1453,0.72,0.03,0.71,3
1454,0.72,0.02,0.7,3
1455,0.72,0.02,0.7,3
1456,0.72,0.03,0.71,3
1457,0.73,0.02,0.71,3
1458,0.73,0.02,0.72,3
1459,0.72,0.02,0.71,3
1460,0.73,0.02,0.72,3
1461,0.72,0.02,0.71,3
1462,0.72,0.02,0.7,3
1463,0.73,0.01,0.7,3
1464,0.73,0.02,0.7,3
1465,0.73,0.02,0.71,3
1466,0.72,0.01,0.7,3
1467,0.73,0.0,0.74,3
1468,0.73,-0.02,0.83,3
1469,0.58,-0.05,1.07,3
1470,0.4,-0.01,1.31,3
1471,0.76,0.0,1.71,3
1472,0.74,0.22,1.6,3
1473,0.97,0.47,1.48,3
1474,0.78,0.67,1.07,3
1475,0.81,0.78,0.58,3
1476,0.79,0.9,0.49,3
1477,0.75,0.99,-0.02,3
1478,0.79,0.91,-0.14,3
1479,0.96,0.73,-0.28,3
1480,0.64,0.57,-0.33,3
1481,0.72,0.37,-0.45,3
1482,0.73,0.26,-0.56,3
1483,0.74,-0.07,-0.91,3
1484,0.89,-0.23,-1.13,3
1485,1.07,-0.37,-1.23,3
1486,1.14,-0.58,-1.21,3
1487,1.18,-0.69,-1.12,3
1488,1.24,-0.72,-1.02,3
1489,1.23,-0.61,-1.01,3
1490,1.19,-0.43,-1.0,3
1491,1.09,-0.29,-0.96,3
1492,0.96,-0.19,-0.94,3
1493,0.9,-0.06,-0.88,3
1494,0.86,0.09,-0.85,3
1495,0.86,0.26,-0.82,3
1496,0.86,0.4,-0.67,3
1497,0.79,0.57,-0.61,3
1498,0.82,0.76,-0.44,3
1499,0.79,0.97,-0.33,3
1500,0.9,1.18,0.05,3
1501,0.78,1.29,0.23,3
1502,0.96,1.3,0.71,3
1503,0.8,1.11,0.79,3
1504,0.86,0.88,1.0,3
1505,0.94,0.58,1.02,3
1506,0.69,0.41,0.97,3
1507,0.82,0.15,0.98,3
1508,0.89,-0.08,0.85,3
1509,0.79,-0.12,0.72,3
1510,0.93,-0.08,0.67,3
1511,0.68,-0.03,0.55,3
1512,0.85,0.02,0.48,3
1513,0.73,0.06,0.51,3
1514,0.85,0.08,0.56,3
1515,0.87,0.07,0.54,3
1516,0.79,0.08,0.48,3
1517,0.94,0.05,0.54,3
1518,0.83,0.07,0.49,3
1519,0.89,0.08,0.53,3
1520,0.85,0.07,0.49,3
1521,0.87,0.07,0.51,3
1522,0.88,0.08,0.49,3
1523,0.81,0.08,0.51,3
1524,0.86,0.09,0.52,3
1525,0.78,0.08,0.55,3
1526,0.85,0.04,0.53,3
1527,0.85,0.11,0.57,3
1528,0.78,0.05,0.57,3
1529,0.81,0.1,0.6,3
1530,0.82,0.1,0.58,3
1531,0.85,0.05,0.55,3
1532,0.79,0.09,0.5,3
1533,0.78,0.08,0.56,3
1534,0.82,0.05,0.59,3
1535,0.84,0.07,0.61,3
1536,0.77,0.08,0.63,3
1537,0.82,0.08,0.58,3
1538,0.86,0.07,0.53,3
1539,0.83,0.08,0.54,3
1540,0.82,0.06,0.56,3
1541,0.79,0.08,0.56,3
1542,0.81,0.05,0.56,3
1543,0.85,0.04,0.57,3
1544,0.79,0.07,0.57,3
1545,0.84,0.05,0.56,3
1546,0.81,0.06,0.56,3
1547,0.81,0.06,0.57,3
1548,0.83,0.05,0.57,3
1549,0.82,0.06,0.58,3
1550,0.83,0.06,0.57,0
1551,0.83,0.05,0.56,0
1552,0.84,0.04,0.56,0
1553,0.82,0.05,0.56,0
1554,0.84,0.05,0.57,0
1555,0.84,0.05,0.56,0
1556,0.83,0.05,0.56,0
1557,0.82,0.05,0.55,0
1558,0.83,0.05,0.55,0
1559,0.82,0.05,0.55,0
1560,0.83,0.06,0.55,0
1561,0.84,0.05,0.57,0
1562,0.83,0.03,0.57,0
1563,0.83,0.04,0.59,0
1564,0.8,0.05,0.57,0
1565,0.82,0.05,0.53,0
1566,0.84,0.07,0.51,0
1567,0.85,0.06,0.51,0
1568,0.83,0.06,0.51,0
1569,0.87,0.05,0.51,0
1570,0.87,0.05,0.53,0
1571,0.85,0.05,0.53,0
1572,0.85,0.06,0.53,0
1573,0.85,0.06,0.53,0
1574,0.85,0.06,0.54,0
1575,0.85,0.06,0.53,0
1576,0.85,0.06,0.54,0
1577,0.85,0.07,0.53,0
1578,0.85,0.07,0.52,0
1579,0.85,0.06,0.52,0
1580,0.85,0.06,0.52,0
1581,0.84,0.07,0.53,0
1582,0.85,0.06,0.54,0
1583,0.84,0.06,0.53,0
1584,0.84,0.06,0.53,0
1585,0.85,0.05,0.54,0
1586,0.84,0.05,0.53,0
1587,0.85,0.05,0.54,0
1588,0.85,0.06,0.56,0
1589,0.84,0.05,0.54,0
1590,0.84,0.05,0.53,0
1591,0.84,0.05,0.53,0
1592,0.84,0.05,0.54,0
1593,0.83,0.05,0.54,0
1594,0.85,0.05,0.54,0
1595,0.84,0.05,0.54,0
1596,0.84,0.05,0.55,0
1597,0.84,0.05,0.55,0
1598,0.84,0.05,0.55,0
1599,0.85,0.05,0.54,0
1600,0.84,0.05,0.54,0
1601,0.84,0.05,0.53,0
1602,0.84,0.05,0.54,0
1603,0.84,0.05,0.53,0
1604,0.85,0.05,0.55,0
1605,0.85,0.05,0.55,0
1606,0.84,0.05,0.55,0
1607,0.84,0.05,0.54,0
1608,0.84,0.05,0.54,0
1609,0.85,0.05,0.54,0
1610,0.83,0.05,0.53,0
1611,0.84,0.05,0.54,0
1612,0.85,0.05,0.54,0
1613,0.84,0.05,0.54,0
1614,0.84,0.05,0.54,0
1615,0.84,0.05,0.54,0
1616,0.84,0.05,0.54,0
1617,0.84,0.05,0.54,0
1618,0.84,0.05,0.54,0
1619,0.85,0.05,0.55,0
1620,0.84,0.05,0.55,0
1621,0.84,0.05,0.54,0
1622,0.83,0.05,0.54,0
1623,0.84,0.04,0.54,0
1624,0.83,0.05,0.54,0
1625,0.83,0.05,0.54,0
1626,0.84,0.05,0.55,0
1627,0.84,0.04,0.55,0
1628,0.83,0.04,0.55,0
1629,0.83,0.04,0.56,0
1630,0.84,0.04,0.56,0
1631,0.83,0.05,0.56,0
1632,0.83,0.04,0.55,0
1633,0.83,0.04,0.55,0
1634,0.83,0.05,0.55,0
1635,0.84,0.04,0.56,0
1636,0.83,0.05,0.55,0
1637,0.83,0.04,0.55,0
1638,0.83,0.05,0.56,0
1639,0.84,0.05,0.57,0
1640,0.84,0.04,0.56,0
1641,0.83,0.04,0.56,0
1642,0.82,0.05,0.58,0
1643,0.84,0.02,0.55,0
1644,0.81,0.05,0.56,0
1645,0.83,0.06,0.57,0
1646,0.85,0.05,0.56,0
1647,0.79,0.04,0.6,0
1648,0.82,0.03,0.58,0
1649,0.81,0.04,0.6,0
1650,0.8,0.04,0.58,0
1651,0.77,0.07,0.57,0
1652,0.81,0.04,0.6,0
1653,0.8,0.03,0.61,0
1654,0.79,0.04,0.61,0
1655,0.77,0.03,0.61,0
1656,0.8,0.05,0.59,0
1657,0.84,0.04,0.58,0
1658,0.79,0.02,0.58,0
1659,0.8,0.04,0.58,0
1660,0.8,0.03,0.59,0
1661,0.79,0.04,0.59,0
1662,0.8,0.04,0.59,0
1663,0.82,0.04,0.59,0
1664,0.8,0.04,0.59,0
1665,0.81,0.05,0.59,0
1666,0.79,0.05,0.59,0
1667,0.81,0.05,0.59,0
1668,0.8,0.05,0.59,0
1669,0.8,0.05,0.59,0
1670,0.79,0.04,0.59,0
1671,0.8,0.04,0.59,0
1672,0.8,0.04,0.59,0
1673,0.8,0.04,0.59,0
1674,0.81,0.05,0.59,0
1675,0.79,0.04,0.59,3
1676,0.8,0.05,0.59,3
1677,0.81,0.05,0.59,3
1678,0.8,0.04,0.59,3
1679,0.8,0.04,0.59,3
1680,0.79,0.04,0.59,3
1681,0.8,0.04,0.59,3
1682,0.81,0.04,0.59,3
1683,0.81,0.04,0.59,3
1684,0.8,0.05,0.59,3
1685,0.8,0.04,0.59,3
1686,0.8,0.05,0.59,3
1687,0.79,0.04,0.59,3
1688,0.81,0.05,0.59,3
1689,0.79,0.05,0.59,3
1690,0.8,0.05,0.6,3
1691,0.82,0.04,0.6,3
1692,0.84,0.05,0.67,3
1693,0.78,0.07,0.75,3
1694,0.7,0.05,0.81,3
1695,0.62,0.1,1.01,3
1696,0.95,0.11,1.48,3
1697,0.75,0.08,1.72,3
1698,1.05,-0.05,1.49,3
1699,0.41,-0.05,1.06,3
1700,0.66,0.24,0.2,3
1701,0.7,0.56,-0.21,3
1702,1.22,0.82,-0.46,3
1703,0.9,0.62,-0.35,3
1704,0.92,0.45,-0.39,3
1705,0.85,0.59,-0.46,3
1706,1.04,0.87,-0.76,3
1707,0.94,1.27,-0.8,3
1708,0.94,0.83,0.1,3
1709,1.0,0.95,1.77,3
1710,1.32,0.78,2.66,3
1711,1.37,0.64,2.38,3
1712,1.29,0.39,1.42,3
1713,1.2,0.16,1.12,3
1714,1.37,0.35,1.48,3
1715,1.02,0.48,0.94,3
1716,1.19,0.84,0.76,3
1717,0.93,1.25,-0.46,3
1718,0.62,1.35,-0.87,3
1719,1.33,0.42,-0.61,3
1720,0.47,0.26,-0.59,3
1721,0.86,0.63,-0.41,3
1722,0.85,0.98,-0.64,3
1723,1.16,0.72,-0.29,3
1724,0.91,0.55,0.39,3
1725,0.69,0.28,1.49,3
1726,0.78,0.39,1.75,3
1727,1.04,0.16,1.35,3
1728,1.1,0.11,0.63,3
1729,1.03,-0.02,0.47,3
1730,1.07,-0.01,0.39,3
1731,1.03,0.01,0.33,3
1732,0.93,0.01,0.27,3
1733,1.02,0.0,0.24,3
1734,0.94,-0.01,0.2,3
1735,0.98,0.03,0.24,3
1736,0.94,0.04,0.26,3
1737,0.97,0.04,0.25,3
1738,1.01,0.01,0.24,3
1739,0.95,0.01,0.24,3
1740,0.98,0.04,0.28,3
1741,0.95,0.05,0.27,3
1742,0.97,0.04,0.24,3
1743,0.96,0.04,0.22,3
1744,0.95,0.03,0.25,3
1745,0.96,0.02,0.25,3
1746,0.96,0.02,0.27,3
1747,0.95,0.03,0.29,3
1748,0.96,0.02,0.3,3
1749,0.96,0.04,0.29,3
1750,0.95,0.06,0.29,3
1751,0.94,0.04,0.28,3
1752,0.96,0.05,0.33,3
1753,0.95,0.03,0.31,3
1754,0.94,0.04,0.33,3
1755,0.96,0.04,0.35,3
1756,0.93,0.03,0.34,3
1757,0.95,0.04,0.34,3
1758,0.94,0.04,0.34,3
1759,0.94,0.04,0.35,3
1760,0.95,0.04,0.34,3
1761,0.96,0.04,0.34,3
1762,0.93,0.04,0.35,3
1763,0.93,0.04,0.35,3
1764,0.95,0.04,0.35,3
1765,0.95,0.04,0.34,3
1766,0.94,0.04,0.34,3
1767,0.95,0.04,0.35,3
1768,0.93,0.04,0.33,3
1769,0.95,0.04,0.36,3
1770,0.94,0.04,0.35,3
1771,0.93,0.04,0.35,3
1772,0.95,0.04,0.36,3
1773,0.93,0.04,0.35,3
1774,0.94,0.04,0.37,3
1775,0.93,0.03,0.33,3
1776,0.94,0.07,0.36,3
1777,0.93,0.03,0.35,3
1778,0.94,0.03,0.36,3
1779,0.94,0.04,0.39,3
1780,0.95,0.05,0.44,3
1781,0.94,0.03,0.32,3
1782,0.92,0.04,0.22,3
1783,0.92,0.06,0.36,3
1784,0.95,0.0,0.35,3
1785,0.91,0.06,0.39,3
1786,0.93,0.05,0.44,3
1787,0.95,0.05,0.43,3
1788,0.97,0.04,0.29,3
1789,0.95,0.05,0.27,3
1790,0.93,0.04,0.34,3
1791,0.95,0.05,0.34,3
1792,0.94,0.04,0.3,3
1793,0.96,0.03,0.31,3
1794,0.95,0.02,0.33,3
1795,0.94,0.03,0.35,3
1796,0.94,0.03,0.34,3
1797,0.95,0.04,0.31,3
1798,0.95,0.01,0.31,3
1799,0.95,0.03,0.32,3
1800,0.94,0.04,0.32,0
1801,0.95,0.03,0.33,0
1802,0.95,0.04,0.33,0
1803,0.95,0.03,0.32,0
1804,0.95,0.03,0.33,0
1805,0.95,0.03,0.32,0
1806,0.95,0.04,0.33,0
1807,0.94,0.02,0.32,0
1808,0.95,0.03,0.33,0
1809,0.95,0.03,0.34,0
1810,0.95,0.02,0.34,0
1811,0.94,0.03,0.33,0
1812,0.95,0.03,0.33,0
1813,0.95,0.03,0.33,0
1814,0.95,0.03,0.32,0
1815,0.94,0.02,0.33,0
1816,0.94,0.02,0.33,0
1817,0.95,0.02,0.33,0
1818,0.96,0.02,0.34,0
1819,0.95,0.03,0.33,0
1820,0.95,0.02,0.33,0
1821,0.95,0.02,0.32,0
1822,0.94,0.03,0.33,0
1823,0.95,0.03,0.33,0
1824,0.94,0.02,0.33,0
1825,0.95,0.03,0.34,0
1826,0.95,0.02,0.35,0
1827,0.95,0.02,0.35,0
1828,0.95,0.02,0.35,0
1829,0.94,0.03,0.35,0
1830,0.94,0.02,0.34,0
1831,0.94,0.02,0.35,0
1832,0.94,0.03,0.36,0
1833,0.94,0.03,0.35,0
1834,0.94,0.03,0.35,0
1835,0.94,0.02,0.36,0
1836,0.95,0.02,0.36,0
1837,0.94,0.03,0.36,0
1838,0.94,0.03,0.35,0
1839,0.94,0.03,0.36,0
1840,0.94,0.02,0.35,0
1841,0.93,0.03,0.35,0
1842,0.95,0.03,0.36,0
1843,0.93,0.03,0.36,0
1844,0.94,0.03,0.36,0
1845,0.94,0.03,0.36,0
1846,0.93,0.03,0.36,0
1847,0.94,0.03,0.35,0
1848,0.93,0.03,0.36,0
1849,0.94,0.02,0.36,0
1850,0.94,0.02,0.36,0
1851,0.95,0.02,0.36,0
1852,0.94,0.03,0.36,0
1853,0.94,0.03,0.36,0
1854,0.93,0.03,0.36,0
1855,0.94,0.03,0.36,0
1856,0.94,0.02,0.35,0
1857,0.94,0.03,0.36,0
1858,0.94,0.02,0.35,0
1859,0.94,0.03,0.36,0
1860,0.94,0.03,0.36,0
1861,0.93,0.02,0.36,0
1862,0.94,0.02,0.36,0
1863,0.95,0.02,0.36,0
1864,0.94,0.03,0.35,0
1865,0.93,0.03,0.35,0
1866,0.94,0.03,0.36,0
1867,0.94,0.02,0.36,0
1868,0.93,0.03,0.36,0
1869,0.94,0.03,0.36,0
1870,0.95,0.03,0.36,0
1871,0.93,0.03,0.35,0
1872,0.94,0.02,0.35,0
1873,0.94,0.02,0.35,0
1874,0.94,0.02,0.36,0
1875,0.93,0.02,0.36,0
1876,0.94,0.02,0.36,0
1877,0.95,0.02,0.36,0
1878,0.94,0.02,0.36,0
1879,0.94,0.02,0.36,0
1880,0.94,0.02,0.36,0
1881,0.95,0.02,0.36,0
1882,0.93,0.02,0.35,0
1883,0.93,0.02,0.35,0
1884,0.94,0.02,0.36,0
1885,0.94,0.02,0.36,0
1886,0.94,0.02,0.36,0
1887,0.95,0.02,0.36,0
1888,0.93,0.02,0.36,0
1889,0.94,0.02,0.36,0
1890,0.94,0.02,0.36,0
1891,0.93,0.02,0.36,0
1892,0.94,0.02,0.36,0
1893,0.94,0.02,0.36,0
1894,0.95,0.02,0.36,0
1895,0.94,0.02,0.37,0
1896,0.93,0.02,0.36,0
1897,0.94,0.02,0.36,0
1898,0.94,0.03,0.37,0
1899,0.94,0.02,0.36,0
1900,0.93,0.03,0.36,0
1901,0.94,0.02,0.37,0
1902,0.94,0.01,0.36,0
1903,0.94,0.04,0.36,0
1904,0.93,0.02,0.37,0
1905,0.94,0.02,0.37,0
1906,0.93,0.02,0.36,0
1907,0.93,0.03,0.37,0
1908,0.93,0.02,0.37,0
1909,0.94,0.04,0.36,0
1910,0.93,0.03,0.36,0
1911,0.93,0.02,0.37,0
1912,0.94,0.03,0.37,0
1913,0.94,0.03,0.37,0
1914,0.92,0.03,0.39,0
1915,0.93,0.03,0.37,0
1916,0.92,0.03,0.39,0
1917,0.93,0.03,0.37,0
1918,0.94,0.03,0.39,0
1919,0.91,0.02,0.39,0
1920,0.94,0.03,0.37,0
1921,0.94,0.05,0.42,0
1922,0.91,0.03,0.41,0
1923,0.92,0.02,0.39,0
1924,0.92,0.03,0.39,0
1925,0.95,0.05,0.41,0
1926,0.92,0.03,0.37,0
1927,0.92,0.03,0.36,0
1928,0.92,0.04,0.36,0
1929,0.94,0.03,0.38,0
1930,0.93,0.02,0.37,0
1931,0.93,0.02,0.38,0
1932,0.88,0.11,0.36,0
1933,0.96,0.0,0.38,0
1934,0.93,0.01,0.36,0
1935,0.93,0.03,0.37,0
1936,0.93,0.03,0.37,0
1937,0.93,0.03,0.37,0
1938,0.93,0.03,0.37,0
1939,0.94,0.03,0.37,0
1940,0.93,0.03,0.37,0
1941,0.94,0.02,0.37,0
1942,0.93,0.03,0.37,0
1943,0.93,0.03,0.37,0
1944,0.93,0.02,0.37,0
1945,0.93,0.03,0.37,0
1946,0.93,0.03,0.37,0
1947,0.94,0.02,0.37,0
1948,0.93,0.03,0.37,0
1949,0.93,0.03,0.37,0
1950,0.94,0.02,0.37,3
1951,0.93,0.03,0.37,3
1952,0.93,0.02,0.37,3
1953,0.93,0.02,0.37,3
1954,0.93,0.02,0.37,3
1955,0.93,0.02,0.38,3
1956,0.93,0.02,0.37,3
1957,0.93,0.03,0.37,3
1958,0.93,0.02,0.37,3
1959,0.93,0.02,0.37,3
1960,0.93,0.02,0.37,3
1961,0.93,0.03,0.37,3
1962,0.94,0.02,0.37,3
1963,0.94,0.02,0.37,3
1964,0.93,0.02,0.38,3
1965,0.93,0.03,0.37,3
1966,0.93,0.03,0.37,3
1967,0.93,0.03,0.36,3
1968,0.93,0.03,0.37,3
1969,0.93,0.03,0.37,3
1970,0.93,0.02,0.37,3
1971,0.93,0.03,0.37,3
1972,0.94,0.03,0.37,3
1973,0.94,0.03,0.37,3
1974,0.93,0.03,0.37,3
1975,0.93,0.03,0.37,3
1976,0.92,0.03,0.36,3
1977,0.93,0.03,0.37,3
1978,0.93,0.04,0.37,3
1979,0.95,0.03,0.38,3
1980,0.94,0.04,0.4,3
1981,0.94,0.04,0.4,3
1982,0.9,0.05,0.4,3
1983,0.92,0.06,0.41,3
1984,0.92,0.07,0.45,3
1985,0.95,0.09,0.62,3
1986,1.07,0.1,1.01,3
1987,1.18,0.07,1.27,3
1988,1.27,0.09,1.6,3
1989,1.53,0.08,1.57,3
1990,1.66,0.03,1.37,3
1991,1.08,0.1,1.02,3
1992,0.72,0.22,0.82,3
1993,0.6,0.35,0.67,3
1994,0.36,0.46,0.61,3
1995,-0.09,0.49,0.56,3
1996,-0.2,0.37,0.49,3
1997,-0.34,0.23,0.31,3
1998,-0.36,0.08,0.13,3
1999,-0.21,-0.09,-0.05,3
2000,-0.1,-0.13,-0.34,3
2001,0.32,-0.45,-0.6,3
2002,0.42,-0.63,-0.81,3
2003,0.84,-0.74,-0.86,3
2004,1.07,-0.99,-0.79,3
2005,1.21,-1.0,-0.45,3
2006,1.27,-0.93,0.23,3
2007,1.31,-0.76,0.94,3
2008,1.21,-0.42,1.41,3
2009,1.07,0.01,1.56,3
2010,0.68,0.27,1.7,3
2011,0.33,0.58,1.98,3
2012,-0.02,0.75,2.06,3
2013,-0.23,0.65,1.79,3
2014,0.0,0.5,1.46,3
2015,0.27,0.41,1.07,3
2016,0.63,0.34,0.78,3
2017,0.73,0.22,0.43,3
2018,0.84,0.11,0.16,3
2019,0.92,-0.1,-0.1,3
2020,1.15,-0.3,-0.25,3
2021,1.33,-0.4,-0.3,3
2022,1.38,-0.58,0.0,3
2023,1.31,-0.65,0.3,3
2024,1.26,-0.56,0.51,3
2025,1.24,-0.55,0.73,3
2026,1.05,-0.33,0.75,3
2027,1.21,-0.05,0.91,3
2028,0.95,0.19,0.83,3
2029,0.91,0.35,0.8,3
2030,0.97,0.52,0.71,3
2031,0.79,0.61,0.6,3
2032,0.92,0.58,0.51,3
2033,0.87,0.49,0.46,3
2034,0.79,0.37,0.47,3
2035,0.76,0.22,0.47,3
2036,0.85,0.06,0.47,3
2037,0.87,0.02,0.49,3
2038,0.89,-0.01,0.49,3
2039,0.96,-0.01,0.5,3
2040,0.87,0.0,0.48,3
2041,0.92,0.0,0.48,3
2042,0.87,0.0,0.46,3
2043,0.88,0.01,0.44,3
2044,0.86,0.03,0.44,3
2045,0.9,0.01,0.45,3
2046,0.9,0.02,0.45,3
2047,0.91,0.01,0.45,3
2048,0.92,0.03,0.45,3
2049,0.92,0.03,0.45,3
2050,0.86,0.06,0.43,3
2051,0.92,0.02,0.44,3
2052,0.9,0.02,0.44,3
2053,0.9,0.03,0.41,3
2054,0.91,0.01,0.43,3
2055,0.93,0.02,0.46,3
2056,0.92,0.0,0.45,3
2057,0.88,0.04,0.46,3
2058,0.87,0.05,0.46,3
2059,0.9,0.02,0.48,3
2060,0.83,0.04,0.5,3
2061,0.88,0.02,0.47,3
2062,0.88,0.04,0.5,3
2063,0.87,0.04,0.5,3
2064,0.89,0.02,0.5,3
2065,0.9,-0.03,0.41,3
2066,0.85,0.07,0.47,3
2067,0.89,-0.01,0.44,3
2068,0.88,0.08,0.5,3
2069,0.85,0.06,0.5,3
2070,0.9,0.04,0.53,3
2071,0.87,0.02,0.5,3
2072,0.87,0.05,0.47,3
2073,0.87,0.07,0.43,3
2074,0.88,0.05,0.45,3
2075,0.87,0.03,0.47,0
2076,0.88,0.03,0.47,0
2077,0.9,0.05,0.48,0
2078,0.88,0.08,0.47,0
2079,0.89,0.02,0.48,0
2080,0.86,0.03,0.47,0
2081,0.86,0.04,0.46,0
2082,0.86,0.02,0.46,0
2083,0.86,0.03,0.46,0
2084,0.86,0.04,0.47,0
2085,0.87,0.04,0.48,0
2086,0.88,0.03,0.48,0
2087,0.88,0.02,0.48,0
2088,0.87,0.03,0.47,0
2089,0.87,0.03,0.47,0
2090,0.87,0.04,0.48,0
2091,0.87,0.04,0.47,0
2092,0.87,0.04,0.48,0
2093,0.87,0.03,0.47,0
2094,0.87,0.04,0.47,0
2095,0.87,0.04,0.47,0
2096,0.87,0.03,0.47,0
2097,0.87,0.03,0.48,0
2098,0.88,0.03,0.47,0
2099,0.87,0.03,0.47,0
2100,0.87,0.03,0.48,0
2101,0.87,0.03,0.47,0
2102,0.87,0.04,0.47,0
2103,0.87,0.04,0.47,0
2104,0.87,0.03,0.47,0
2105,0.87,0.04,0.47,0
2106,0.88,0.04,0.47,0
2107,0.87,0.04,0.47,0
2108,0.88,0.03,0.47,0
2109,0.88,0.03,0.47,0
2110,0.87,0.03,0.47,0
2111,0.88,0.03,0.47,0
2112,0.87,0.04,0.47,0
2113,0.87,0.04,0.47,0
2114,0.88,0.03,0.47,0
2115,0.87,0.03,0.47,0
2116,0.87,0.03,0.47,0
2117,0.88,0.03,0.47,0
2118,0.88,0.03,0.47,0
2119,0.87,0.03,0.47,0
2120,0.87,0.03,0.47,0
2121,0.88,0.03,0.47,0
2122,0.87,0.03,0.47,0
2123,0.88,0.03,0.47,0
2124,0.87,0.03,0.47,0
2125,0.87,0.03,0.47,0
2126,0.88,0.03,0.47,0
2127,0.87,0.03,0.47,0
2128,0.87,0.04,0.47,0
2129,0.87,0.03,0.47,0
2130,0.87,0.03,0.47,0
2131,0.87,0.03,0.47,0
2132,0.87,0.03,0.47,0
2133,0.87,0.03,0.47,0
2134,0.87,0.03,0.47,0
2135,0.87,0.03,0.47,0
2136,0.88,0.03,0.47,0
2137,0.88,0.03,0.47,0
2138,0.87,0.03,0.47,0
2139,0.87,0.03,0.47,0
2140,0.88,0.03,0.47,0
2141,0.87,0.03,0.47,0
2142,0.88,0.03,0.47,0
2143,0.87,0.04,0.47,0
2144,0.87,0.03,0.47,0
2145,0.87,0.03,0.47,0
2146,0.87,0.03,0.47,0
2147,0.87,0.03,0.47,0
2148,0.88,0.03,0.47,0
2149,0.88,0.03,0.47,0
2150,0.87,0.03,0.47,0
2151,0.87,0.03,0.47,0
2152,0.87,0.04,0.47,0
2153,0.87,0.03,0.47,0
2154,0.87,0.03,0.47,0
2155,0.87,0.03,0.47,0
2156,0.87,0.03,0.47,0
2157,0.87,0.03,0.47,0
2158,0.88,0.03,0.47,0
2159,0.88,0.03,0.47,0
2160,0.87,0.03,0.47,0
2161,0.87,0.02,0.47,0
2162,0.87,0.03,0.47,0
2163,0.87,0.03,0.47,0
2164,0.88,0.03,0.47,0
2165,0.88,0.03,0.47,0
2166,0.87,0.03,0.47,0
2167,0.88,0.03,0.47,0
2168,0.88,0.03,0.47,0
2169,0.88,0.03,0.47,0
2170,0.87,0.03,0.47,0
2171,0.88,0.02,0.47,0
2172,0.87,0.02,0.47,0
2173,0.88,0.03,0.47,0
2174,0.88,0.03,0.47,0
2175,0.88,0.03,0.47,0
2176,0.87,0.03,0.47,0
2177,0.88,0.03,0.47,0
2178,0.88,0.02,0.47,0
2179,0.88,0.02,0.47,0
2180,0.88,0.03,0.47,0
2181,0.87,0.02,0.47,0
2182,0.87,0.02,0.47,0
2183,0.88,0.03,0.47,0
2184,0.88,0.03,0.47,0
2185,0.87,0.02,0.47,0
2186,0.88,0.03,0.47,0
2187,0.89,0.03,0.47,0
2188,0.88,0.02,0.47,0
2189,0.88,0.03,0.47,0
2190,0.88,0.03,0.47,0
2191,0.88,0.03,0.47,0
2192,0.88,0.03,0.47,0
2193,0.88,0.02,0.47,0
2194,0.89,0.03,0.47,0
2195,0.9,0.02,0.47,0
2196,0.89,0.03,0.48,0
2197,0.87,0.02,0.48,0
2198,0.86,0.01,0.47,0
2199,0.89,0.04,0.47,0
2200,0.85,0.04,0.47,0
2201,0.92,0.03,0.47,0
2202,0.88,0.03,0.48,0
2203,0.86,0.03,0.47,0
2204,0.88,0.03,0.47,0
2205,0.86,0.04,0.48,0
2206,0.86,0.04,0.5,0
2207,0.85,0.03,0.52,0
2208,0.87,0.04,0.49,0
2209,0.86,0.02,0.48,0
2210,0.85,0.01,0.48,0
2211,0.88,0.03,0.48,0
2212,0.86,0.03,0.49,0
2213,0.86,0.03,0.48,0
2214,0.86,0.04,0.48,0
2215,0.86,0.04,0.48,0
2216,0.86,0.04,0.48,0
2217,0.87,0.05,0.48,0
2218,0.86,0.04,0.48,0
2219,0.86,0.04,0.48,0
2220,0.87,0.04,0.48,0
2221,0.86,0.04,0.48,0
2222,0.87,0.04,0.48,0
2223,0.86,0.03,0.48,0
2224,0.86,0.04,0.48,0
2225,0.86,0.04,0.48,3
2226,0.87,0.04,0.48,3
2227,0.86,0.04,0.48,3
2228,0.86,0.04,0.48,3
2229,0.86,0.04,0.48,3
2230,0.86,0.04,0.48,3
2231,0.86,0.04,0.48,3
2232,0.86,0.03,0.48,3
2233,0.86,0.04,0.48,3
2234,0.87,0.03,0.48,3
2235,0.86,0.04,0.48,3
2236,0.86,0.04,0.48,3
2237,0.86,0.03,0.48,3
2238,0.86,0.04,0.48,3
2239,0.86,0.04,0.48,3
2240,0.86,0.04,0.48,3
2241,0.87,0.03,0.48,3
2242,0.86,0.04,0.48,3
2243,0.86,0.04,0.48,3
2244,0.86,0.04,0.48,3
2245,0.87,0.04,0.48,3
2246,0.86,0.05,0.5,3
2247,0.89,0.04,0.51,3
2248,0.82,0.07,0.52,3
2249,0.84,0.06,0.52,3
2250,0.84,0.05,0.54,3
2251,0.9,0.05,0.64,3
2252,0.92,0.1,0.87,3
2253,0.9,0.2,1.37,3
2254,1.43,0.31,2.0,3
2255,1.43,0.41,2.06,3
2256,1.52,0.52,1.73,3
2257,1.81,0.48,1.26,3
2258,1.31,0.5,0.89,3
2259,0.58,0.56,0.39,3
2260,0.28,0.71,-0.02,3
2261,0.06,0.46,-0.47,3
2262,-0.15,0.14,-0.79,3
2263,-0.13,0.0,-0.96,3
2264,-0.11,0.07,-0.93,3
2265,-0.02,0.37,-0.78,3
2266,0.12,0.46,-0.42,3
2267,0.45,0.58,0.81,3
2268,0.46,0.52,1.32,3
2269,1.28,0.81,2.17,3
2270,0.77,0.86,2.32,3
2271,0.94,1.07,2.45,3
2272,0.48,0.94,2.42,3
2273,0.21,0.84,2.18,3
2274,0.08,0.94,2.3,3
2275,0.24,1.22,2.38,3
2276,1.06,1.11,2.38,3
2277,1.13,0.93,1.62,3
2278,0.7,1.21,1.15,3
2279,0.77,1.23,0.2,3
2280,0.16,0.86,-0.34,3
2281,0.08,0.33,-0.62,3
2282,-0.14,-0.17,-0.68,3
2283,-0.39,-0.49,-0.61,3
2284,-0.53,-0.46,-0.55,3
2285,-0.42,-0.31,-0.43,3
2286,-0.32,-0.13,-0.36,3
2287,-0.01,0.09,-0.29,3
2288,0.36,0.25,-0.24,3
2289,0.56,0.0,0.26,3
2290,0.66,0.01,1.08,3
2291,0.86,0.01,1.56,3
2292,0.75,0.2,2.07,3
2293,0.84,0.23,1.96,3
2294,0.89,0.55,1.97,3
2295,0.54,0.48,1.83,3
2296,0.43,0.42,1.44,3
2297,0.69,0.27,1.05,3
2298,0.49,0.21,0.92,3
2299,0.51,0.16,0.82,3
2300,0.63,0.16,0.81,3
2301,0.51,0.11,0.74,3
2302,0.7,0.09,0.77,3
2303,0.63,0.09,0.76,3
2304,0.72,0.08,0.82,3
2305,0.7,0.05,0.76,3
2306,0.68,0.08,0.75,3
2307,0.72,0.04,0.72,3
2308,0.68,0.08,0.67,3
2309,0.73,0.07,0.71,3
2310,0.72,0.07,0.68,3
2311,0.74,0.09,0.69,3
2312,0.74,0.07,0.69,3
2313,0.76,0.09,0.7,3
2314,0.73,0.08,0.7,3
2315,0.75,0.07,0.69,3
2316,0.73,0.08,0.72,3
2317,0.69,0.08,0.69,3
2318,0.7,0.09,0.68,3
2319,0.73,0.1,0.68,3
2320,0.73,0.09,0.71,3
2321,0.72,0.11,0.72,3
2322,0.76,0.05,0.7,3
2323,0.74,0.05,0.62,3
2324,0.73,0.08,0.63,3
2325,0.74,0.08,0.65,3
2326,0.75,0.07,0.7,3
2327,0.74,0.11,0.71,3
2328,0.76,0.08,0.69,3
2329,0.82,0.06,0.61,3
2330,0.75,0.07,0.6,3
2331,0.73,0.07,0.62,3
2332,0.79,0.09,0.61,3
2333,0.78,0.04,0.6,3
2334,0.78,0.07,0.62,3
2335,0.79,0.08,0.62,3
2336,0.76,0.07,0.61,3
2337,0.78,0.06,0.61,3
2338,0.79,0.08,0.62,3
2339,0.77,0.09,0.61,3
2340,0.79,0.06,0.61,3
2341,0.8,0.06,0.61,3
2342,0.77,0.06,0.61,3
2343,0.77,0.06,0.62,3
2344,0.78,0.05,0.6,3
2345,0.78,0.05,0.6,3
2346,0.77,0.05,0.6,3
2347,0.77,0.05,0.6,3
2348,0.77,0.05,0.6,3
2349,0.78,0.06,0.62,3
2350,0.77,0.06,0.62,0
2351,0.78,0.06,0.61,0
2352,0.77,0.06,0.62,0
2353,0.77,0.06,0.62,0
2354,0.78,0.06,0.61,0
2355,0.77,0.05,0.61,0
2356,0.77,0.05,0.62,0
2357,0.77,0.05,0.61,0
2358,0.77,0.05,0.62,0
2359,0.77,0.05,0.61,0
2360,0.77,0.05,0.62,0
2361,0.77,0.06,0.62,0
2362,0.78,0.05,0.62,0
2363,0.77,0.05,0.62,0
2364,0.77,0.05,0.62,0
2365,0.77,0.04,0.63,0
2366,0.76,0.05,0.61,0
2367,0.78,0.05,0.63,0
2368,0.77,0.06,0.63,0
2369,0.77,0.05,0.61,0
2370,0.78,0.04,0.62,0
2371,0.77,0.06,0.62,0
2372,0.77,0.05,0.62,0
2373,0.77,0.05,0.62,0
2374,0.77,0.05,0.62,0
2375,0.77,0.04,0.62,0
2376,0.78,0.05,0.61,0
2377,0.77,0.05,0.61,0
2378,0.77,0.05,0.62,0
2379,0.77,0.05,0.62,0
2380,0.77,0.05,0.62,0
2381,0.78,0.05,0.62,0
2382,0.77,0.05,0.61,0
2383,0.77,0.06,0.61,0
2384,0.77,0.05,0.61,0
2385,0.77,0.05,0.61,0
2386,0.78,0.05,0.62,0
2387,0.77,0.05,0.62,0
2388,0.77,0.05,0.62,0
2389,0.77,0.06,0.61,0
2390,0.77,0.06,0.61,0
2391,0.77,0.06,0.61,0
2392,0.76,0.06,0.62,0
2393,0.77,0.05,0.63,0
2394,0.76,0.05,0.63,0
2395,0.76,0.05,0.64,0
2396,0.76,0.05,0.63,0
2397,0.77,0.06,0.65,0
2398,0.76,0.04,0.64,0
2399,0.76,0.06,0.65,0
2400,0.76,0.04,0.66,0
2401,0.73,0.06,0.67,0
2402,0.75,0.05,0.68,0
2403,0.73,0.04,0.68,0
2404,0.73,0.06,0.69,0
2405,0.74,0.05,0.67,0
2406,0.72,0.06,0.63,0
2407,0.73,0.07,0.72,0
2408,0.75,0.04,0.73,0
2409,0.72,0.05,0.68,0
2410,0.73,0.05,0.72,0
2411,0.77,0.06,0.7,0
2412,0.74,0.05,0.68,0
2413,0.73,0.06,0.67,0
2414,0.73,0.05,0.67,0
2415,0.73,0.09,0.66,0
2416,0.72,0.04,0.65,0
2417,0.74,0.03,0.66,0
2418,0.73,0.05,0.66,0
2419,0.73,0.06,0.68,0
2420,0.74,0.05,0.68,0
2421,0.73,0.05,0.69,0
2422,0.73,0.05,0.68,0
2423,0.74,0.06,0.68,0
2424,0.74,0.05,0.67,0
2425,0.73,0.06,0.67,3
2426,0.74,0.05,0.67,3
2427,0.73,0.05,0.67,3
2428,0.73,0.05,0.68,3
2429,0.74,0.05,0.67,3
2430,0.74,0.05,0.67,3
2431,0.73,0.05,0.67,3
2432,0.74,0.05,0.67,3
2433,0.74,0.05,0.67,3
2434,0.74,0.05,0.67,3
2435,0.74,0.05,0.67,3
2436,0.74,0.06,0.67,3
2437,0.74,0.04,0.67,3
2438,0.74,0.05,0.68,3
2439,0.74,0.05,0.67,3
2440,0.74,0.05,0.66,3
2441,0.74,0.05,0.65,3
2442,0.74,0.05,0.66,3
2443,0.74,0.05,0.66,3
2444,0.74,0.05,0.65,3
2445,0.75,0.05,0.66,3
2446,0.74,0.05,0.66,3
2447,0.74,0.05,0.65,3
2448,0.75,0.05,0.66,3
2449,0.75,0.06,0.68,3
2450,0.76,0.06,0.7,3
2451,0.73,0.09,0.69,3
2452,0.73,0.09,0.67,3
2453,0.74,0.09,0.67,3
2454,0.77,0.07,0.68,3
2455,0.78,0.06,0.68,3
2456,0.75,0.07,0.66,3
2457,0.72,0.1,0.65,3
2458,0.73,0.12,0.73,3
2459,0.85,0.15,0.92,3
2460,0.74,0.26,1.55,3
2461,1.17,0.47,2.18,3
2462,1.29,0.45,2.44,3
2463,1.44,0.49,2.06,3
2464,1.64,0.27,1.72,3
2465,1.33,0.24,1.21,3
2466,0.87,0.62,0.5,3
2467,0.35,0.75,-0.39,3
2468,0.24,0.56,-0.76,3
2469,0.02,0.2,-0.92,3
2470,-0.29,-0.23,-0.76,3
2471,-0.47,-0.27,-0.64,3
2472,-0.49,-0.22,-0.7,3
2473,-0.08,-0.02,-0.61,3
2474,-0.05,0.25,-0.71,3
2475,0.77,0.5,0.17,3
2476,0.42,0.38,1.21,3
2477,1.01,0.24,2.2,3
2478,0.53,0.36,2.39,3
2479,0.91,0.22,2.49,3
2480,0.48,0.37,2.18,3
2481,0.41,0.33,1.89,3
2482,0.22,0.23,1.34,3
2483,0.35,0.19,1.03,3
2484,0.45,0.11,0.88,3
2485,0.46,0.11,0.86,3
2486,0.49,0.08,0.94,3
2487,0.55,0.05,1.0,3
2488,0.64,0.03,0.98,3
2489,0.68,-0.05,0.84,3
2490,0.66,-0.05,0.73,3
2491,0.55,-0.07,0.58,3
2492,0.56,-0.01,0.61,3
2493,0.53,0.0,0.71,3
2494,0.47,0.01,0.82,3
2495,0.53,0.03,0.96,3
2496,0.46,0.14,1.2,3
2497,0.34,0.53,1.61,3
2498,0.64,0.9,1.72,3
2499,0.64,1.24,1.52,3
2500,1.26,1.46,1.2,3
2501,1.23,1.6,0.58,3
2502,1.31,1.47,-0.12,3
2503,0.68,1.31,-0.75,3
2504,0.59,1.03,-1.53,3
2505,0.17,0.91,-1.86,3
2506,0.24,0.52,-2.02,3
2507,0.4,0.17,-1.89,3
2508,0.39,-0.37,-1.79,3
2509,0.5,-0.5,-1.77,3
2510,0.65,-0.37,-1.84,3
2511,0.71,-0.08,-1.89,3
2512,0.91,0.3,-1.79,3
2513,0.96,0.73,-1.55,3
2514,1.0,1.27,-1.28,3
2515,0.88,1.85,-0.9,3
2516,1.09,2.1,0.19,3
2517,0.36,1.92,0.56,3
2518,1.14,1.51,1.08,3
2519,0.6,1.32,0.96,3
2520,0.96,0.82,0.92,3
2521,0.94,0.49,0.7,3
2522,0.88,0.12,0.62,3
2523,0.95,0.14,0.56,3
2524,0.81,0.11,0.42,3
2525,0.91,0.11,0.27,3
2526,0.88,0.07,0.28,3
2527,0.97,0.03,0.35,3
2528,0.94,0.1,0.39,3
2529,0.86,0.11,0.46,3
2530,0.86,0.16,0.42,3
2531,1.0,0.11,0.4,3
2532,0.95,0.09,0.35,3
2533,0.95,0.11,0.37,3
2534,0.88,0.11,0.37,3
2535,0.91,0.12,0.36,3
2536,0.93,0.1,0.35,3
2537,0.94,0.11,0.36,3
2538,0.94,0.11,0.4,3
2539,0.89,0.11,0.37,3
2540,0.91,0.11,0.43,3
2541,0.87,0.09,0.4,3
2542,0.94,0.11,0.43,3
2543,0.95,0.1,0.45,3
2544,0.9,0.12,0.44,3
2545,0.89,0.08,0.37,3
2546,0.91,0.11,0.34,3
2547,0.9,0.11,0.43,3
2548,0.91,0.1,0.46,3
2549,0.87,0.1,0.36,3
2550,0.89,0.16,0.35,3
2551,0.9,0.12,0.47,3
2552,0.95,0.03,0.38,3
2553,0.93,0.14,0.38,3
2554,0.89,0.14,0.47,3
2555,0.87,0.14,0.45,3
2556,0.96,0.06,0.36,3
2557,0.95,0.12,0.35,3
2558,0.91,0.11,0.37,3
2559,0.93,0.12,0.37,3
2560,0.93,0.11,0.36,3
2561,0.92,0.11,0.36,3
2562,0.95,0.11,0.37,3
2563,0.93,0.11,0.37,3
2564,0.92,0.11,0.36,3
2565,0.92,0.11,0.36,3
2566,0.93,0.12,0.36,3
2567,0.93,0.11,0.36,3
2568,0.93,0.11,0.37,3
2569,0.92,0.11,0.36,3
2570,0.92,0.11,0.36,3
2571,0.93,0.11,0.36,3
2572,0.92,0.11,0.37,3
2573,0.94,0.11,0.36,3
2574,0.93,0.11,0.37,3
2575,0.93,0.11,0.37,3
2576,0.93,0.11,0.37,3
2577,0.93,0.11,0.36,3
2578,0.92,0.11,0.36,3
2579,0.93,0.11,0.36,3
2580,0.92,0.11,0.36,3
2581,0.93,0.11,0.36,3
2582,0.92,0.11,0.36,3
2583,0.93,0.11,0.36,3
2584,0.94,0.11,0.37,3
2585,0.93,0.11,0.36,3
2586,0.93,0.11,0.37,3
2587,0.92,0.11,0.36,3
2588,0.93,0.11,0.35,3
2589,0.93,0.11,0.36,3
2590,0.93,0.11,0.36,3
2591,0.93,0.11,0.37,3
2592,0.93,0.11,0.36,3
2593,0.93,0.11,0.37,3
2594,0.92,0.11,0.36,3
2595,0.93,0.11,0.36,3
2596,0.92,0.11,0.36,3
2597,0.92,0.11,0.36,3
2598,0.94,0.11,0.36,3
2599,0.92,0.11,0.36,3
2600,0.93,0.11,0.37,3
2601,0.93,0.11,0.36,3
2602,0.92,0.11,0.36,3
2603,0.93,0.11,0.36,3
2604,0.92,0.11,0.37,3
2605,0.92,0.11,0.36,3
2606,0.93,0.11,0.37,3
2607,0.93,0.11,0.36,3
2608,0.92,0.11,0.36,3
2609,0.93,0.11,0.36,3
2610,0.93,0.11,0.37,3
2611,0.92,0.11,0.36,3
2612,0.92,0.11,0.37,3
2613,0.93,0.11,0.37,3
2614,0.93,0.11,0.36,3
2615,0.92,0.11,0.37,3
2616,0.92,0.11,0.37,3
2617,0.93,0.1,0.37,3
2618,0.92,0.1,0.37,3
2619,0.93,0.11,0.37,3
2620,0.93,0.1,0.37,3
2621,0.93,0.1,0.37,3
2622,0.92,0.11,0.37,3
2623,0.93,0.11,0.36,3
2624,0.93,0.11,0.36,3
2625,0.91,0.11,0.36,3
2626,0.92,0.11,0.37,3
2627,0.93,0.11,0.36,3
2628,0.93,0.11,0.37,3
2629,0.93,0.1,0.36,3
2630,0.92,0.11,0.36,3
2631,0.93,0.11,0.36,3
2632,0.93,0.11,0.36,3
2633,0.93,0.11,0.36,3
2634,0.93,0.11,0.36,3
2635,0.93,0.11,0.36,3
2636,0.93,0.11,0.36,3
2637,0.93,0.11,0.36,3
2638,0.93,0.11,0.36,3
2639,0.93,0.11,0.36,3
2640,0.92,0.11,0.36,3
2641,0.93,0.11,0.36,3
2642,0.93,0.1,0.36,3
2643,0.93,0.11,0.36,3
2644,0.93,0.11,0.36,3
2645,0.92,0.1,0.36,3
2646,0.93,0.1,0.36,3
2647,0.94,0.11,0.36,3
2648,0.93,0.1,0.36,3
2649,0.93,0.1,0.36,3
2650,0.93,0.11,0.36,3
2651,0.93,0.11,0.36,3
2652,0.93,0.1,0.36,3
2653,0.92,0.11,0.36,3
2654,0.93,0.11,0.36,3
2655,0.93,0.11,0.36,3
2656,0.93,0.11,0.37,3
2657,0.93,0.1,0.36,3
2658,0.93,0.11,0.36,3
2659,0.93,0.09,0.39,3
2660,0.92,0.11,0.38,3
2661,0.91,0.09,0.39,3
2662,0.9,0.12,0.42,3
2663,0.92,0.11,0.4,3
2664,0.91,0.1,0.42,3
2665,0.89,0.12,0.44,3
2666,0.88,0.09,0.42,3
2667,0.91,0.08,0.36,3
2668,0.9,0.13,0.39,3
2669,0.91,0.1,0.46,3
2670,0.89,0.13,0.44,3
2671,0.89,0.09,0.43,3
2672,0.92,0.11,0.39,3
2673,0.93,0.11,0.37,3
2674,0.88,0.1,0.37,3
2675,0.95,0.09,0.37,0
2676,0.92,0.11,0.38,0
2677,0.92,0.12,0.45,0
2678,0.88,0.13,0.47,0
2679,0.86,0.2,0.48,0
2680,0.86,0.17,0.49,0
2681,0.9,0.1,0.43,0
2682,0.87,0.04,0.4,0
2683,0.91,-0.01,0.35,0
2684,0.94,-0.03,0.33,0
2685,0.88,-0.02,0.36,0
2686,0.96,0.07,0.42,0
2687,0.93,0.19,0.46,0
2688,0.87,0.22,0.47,0
2689,0.92,0.18,0.46,0
2690,0.9,0.14,0.43,0
2691,0.89,0.09,0.42,0
2692,0.9,0.09,0.41,0
2693,0.88,0.08,0.43,0
2694,0.91,0.05,0.44,0
2695,0.92,0.05,0.45,0
2696,0.9,0.05,0.45,0
2697,0.91,0.04,0.46,0
2698,0.88,0.04,0.45,0
2699,0.87,0.04,0.45,0
2700,0.88,0.03,0.44,0
2701,0.88,0.01,0.44,0
2702,0.88,-0.01,0.45,0
2703,0.88,-0.03,0.45,0
2704,0.88,-0.04,0.46,0
2705,0.91,-0.06,0.46,0
2706,0.87,-0.05,0.46,0
2707,0.89,-0.06,0.47,0
2708,0.88,-0.04,0.46,0
2709,0.9,-0.02,0.46,0
2710,0.87,-0.01,0.46,0
2711,0.87,-0.01,0.46,0
2712,0.87,-0.03,0.46,0
2713,0.89,-0.05,0.45,0
2714,0.91,-0.06,0.44,0
2715,0.92,-0.03,0.43,0
2716,0.93,-0.01,0.42,0
2717,0.93,0.0,0.4,0
2718,0.96,-0.01,0.35,0
2719,0.93,0.01,0.38,0
2720,0.94,0.01,0.46,0
2721,0.91,0.0,0.43,0
2722,0.92,0.01,0.42,0
2723,0.95,0.04,0.38,0
2724,0.93,0.03,0.4,0
2725,0.92,0.03,0.4,0
2726,0.93,0.03,0.41,0
2727,0.93,0.04,0.37,0
2728,0.9,0.03,0.38,0
2729,0.91,0.01,0.39,0
2730,0.93,0.02,0.38,0
2731,0.94,0.03,0.39,0
2732,0.94,0.04,0.39,0
2733,0.92,0.05,0.38,0
2734,0.93,0.05,0.37,0
2735,0.92,0.05,0.37,0
2736,0.94,0.04,0.37,0
2737,0.93,0.04,0.37,0
2738,0.93,0.05,0.38,0
2739,0.93,0.05,0.38,0
2740,0.92,0.05,0.39,0
2741,0.93,0.04,0.39,0
2742,0.93,0.04,0.39,0
2743,0.93,0.04,0.38,0
2744,0.93,0.04,0.38,0
2745,0.92,0.03,0.38,0
2746,0.92,0.03,0.38,0
2747,0.93,0.03,0.38,0
2748,0.93,0.04,0.38,0
2749,0.92,0.03,0.39,0
2750,0.93,0.04,0.39,0
2751,0.93,0.03,0.38,0
2752,0.93,0.03,0.39,0
2753,0.92,0.02,0.38,0
2754,0.92,0.02,0.38,0
2755,0.93,0.01,0.38,0
2756,0.92,0.01,0.38,0
2757,0.93,0.02,0.38,0
2758,0.93,0.03,0.38,0
2759,0.93,0.04,0.39,0
2760,0.93,0.04,0.39,0
2761,0.94,0.04,0.39,0
2762,0.93,0.04,0.39,0
2763,0.92,0.04,0.38,0
2764,0.93,0.03,0.37,0
2765,0.93,0.03,0.37,0
2766,0.92,0.03,0.38,0
2767,0.92,0.03,0.38,0
2768,0.93,0.03,0.38,0
2769,0.94,0.03,0.38,0
2770,0.92,0.04,0.38,0
2771,0.94,0.04,0.39,0
2772,0.96,0.06,0.41,0
2773,0.95,0.08,0.42,0
2774,0.84,0.08,0.42,0
2775,0.88,0.06,0.45,0
2776,0.82,0.03,0.47,0
2777,0.77,0.0,0.52,0
2778,0.77,-0.04,0.58,0
2779,0.77,-0.09,0.63,0
2780,0.72,-0.12,0.68,0
2781,0.72,-0.13,0.71,0
2782,0.76,-0.14,0.73,0
2783,0.72,-0.14,0.71,0
2784,0.73,-0.12,0.68,0
2785,0.73,-0.12,0.65,0
2786,0.76,-0.12,0.66,0
2787,0.77,-0.09,0.66,0
2788,0.76,-0.07,0.62,0
2789,0.76,-0.02,0.63,0
2790,0.77,-0.01,0.6,0
2791,0.77,-0.01,0.61,0
2792,0.79,0.01,0.63,0
2793,0.8,0.04,0.68,0
2794,0.82,-0.02,0.73,0
2795,0.73,0.04,0.69,0
2796,0.74,0.07,0.67,0
2797,0.78,0.06,0.62,0
2798,0.81,0.09,0.6,0
2799,0.8,0.08,0.6,0
2800,0.79,0.08,0.6,0
2801,0.81,0.08,0.58,0
2802,0.83,0.11,0.6,0
2803,0.85,0.11,0.63,0
2804,0.87,0.06,0.66,0
2805,0.62,0.17,0.69,0
2806,0.72,-0.02,0.77,0
