sequence,accelx,accely,accelz,event
0,0.56,-0.2,0.82,0
1,0.56,-0.2,0.81,0
2,0.56,-0.2,0.82,0
3,0.56,-0.21,0.81,0
4,0.55,-0.2,0.81,0
5,0.55,-0.2,0.81,0
6,0.55,-0.2,0.82,0
7,0.56,-0.2,0.82,0
8,0.56,-0.21,0.82,0
9,0.55,-0.2,0.81,0
10,0.55,-0.2,0.81,0
11,0.55,-0.2,0.81,0
12,0.56,-0.21,0.82,0
13,0.55,-0.2,0.81,0
14,0.56,-0.2,0.81,0
15,0.56,-0.2,0.81,0
16,0.56,-0.2,0.82,0
17,0.54,-0.2,0.82,0
18,0.55,-0.2,0.83,0
19,0.54,-0.21,0.8,0
20,0.58,-0.21,0.79,0
21,0.56,-0.2,0.82,0
22,0.6,-0.23,0.9,0
23,0.56,-0.27,0.88,0
24,0.52,-0.24,0.92,0
25,0.46,-0.21,0.91,0
26,0.42,-0.15,0.91,0
27,0.41,-0.13,0.92,0
28,0.36,-0.14,0.86,0
29,0.41,-0.19,0.88,0
30,0.46,-0.17,0.9,0
31,0.42,-0.15,0.88,0
32,0.4,-0.14,0.87,0
33,0.46,-0.13,0.91,0
34,0.41,-0.1,0.89,0
35,0.41,-0.07,0.92,0
36,0.36,-0.07,0.91,0
37,0.36,-0.09,0.92,0
38,0.36,-0.11,0.94,0
39,0.32,-0.09,0.94,0
40,0.35,-0.1,0.96,0
41,0.35,-0.1,0.96,0
42,0.35,-0.08,0.95,0
43,0.35,-0.07,0.95,0
44,0.34,-0.06,0.95,0
45,0.35,-0.06,0.95,0
46,0.35,-0.06,0.94,0
47,0.35,-0.06,0.94,0
48,0.35,-0.05,0.96,0
49,0.35,-0.05,0.95,0
50,0.32,-0.06,0.95,0
51,0.34,-0.06,0.96,0
52,0.34,-0.06,0.97,0
53,0.33,-0.06,0.96,0
54,0.31,-0.06,0.97,0
55,0.28,-0.06,0.95,0
56,0.3,-0.06,0.96,0
57,0.3,-0.06,0.97,0
58,0.25,-0.04,0.96,0
59,0.23,-0.06,0.96,0
60,0.3,-0.08,0.96,0
61,0.19,-0.04,0.98,0
62,0.27,-0.08,1.0,0
63,0.28,-0.07,0.97,0
64,0.28,-0.06,0.95,0
65,0.29,-0.05,0.97,0
66,0.32,-0.05,0.98,0
67,0.35,-0.09,0.95,0
68,0.29,-0.04,0.93,0
69,0.35,-0.07,0.94,0
70,0.28,-0.06,0.94,0
71,0.37,-0.06,0.95,0
72,0.44,-0.11,0.95,0
73,0.35,-0.05,0.95,0
74,0.37,-0.06,0.97,0
75,0.36,-0.07,0.95,3
76,0.36,-0.07,0.94,3
77,0.36,-0.07,0.93,3
78,0.36,-0.06,0.93,3
79,0.37,-0.06,0.94,3
80,0.36,-0.07,0.93,3
81,0.37,-0.07,0.94,3
82,0.36,-0.07,0.94,3
83,0.36,-0.07,0.94,3
84,0.36,-0.07,0.94,3
85,0.37,-0.07,0.95,3
86,0.36,-0.07,0.94,3
87,0.36,-0.07,0.95,3
88,0.36,-0.07,0.94,3
89,0.36,-0.07,0.95,3
90,0.36,-0.07,0.94,3
91,0.36,-0.07,0.94,3
92,0.36,-0.07,0.94,3
93,0.36,-0.07,0.94,3
94,0.36,-0.07,0.94,3
95,0.36,-0.06,0.95,3
96,0.36,-0.06,0.95,3
97,0.36,-0.07,0.94,3
98,0.36,-0.07,0.94,3
99,0.36,-0.07,0.94,3
100,0.36,-0.07,0.94,3
101,0.36,-0.06,0.94,3
102,0.36,-0.06,0.94,3
103,0.36,-0.05,0.94,3
104,0.35,-0.04,0.94,3
105,0.34,-0.04,0.94,3
106,0.35,-0.04,0.96,3
107,0.35,-0.04,0.98,3
108,0.31,-0.02,1.02,3
109,0.24,-0.01,1.14,3
110,0.13,-0.01,1.39,3
111,0.11,-0.02,1.55,3
112,0.11,0.02,1.77,3
113,0.16,-0.01,1.75,3
114,0.29,-0.09,1.72,3
115,0.54,-0.21,1.63,3
116,0.32,-0.25,1.38,3
117,0.31,-0.27,1.06,3
118,0.28,-0.15,0.68,3
119,0.18,-0.13,0.46,3
120,0.1,-0.1,0.32,3
121,-0.09,-0.14,0.22,3
122,-0.1,-0.3,0.23,3
123,-0.2,-0.51,0.26,3
124,-0.25,-0.6,0.35,3
125,-0.27,-0.63,0.43,3
126,-0.28,-0.69,0.47,3
127,-0.44,-0.69,0.54,3
128,-0.37,-0.69,0.58,3
129,-0.41,-0.66,0.59,3
130,-0.41,-0.69,0.55,3
131,-0.34,-0.64,0.55,3
132,-0.41,-0.63,0.49,3
133,-0.31,-0.56,0.45,3
134,-0.34,-0.49,0.36,3
135,-0.29,-0.36,0.23,3
136,-0.12,-0.29,0.2,3
137,-0.01,-0.22,0.16,3
138,0.19,-0.22,0.25,3
139,0.3,-0.14,0.44,3
140,0.4,-0.05,0.92,3
141,0.2,0.04,1.33,3
142,0.47,-0.01,1.63,3
143,0.22,-0.04,1.8,3
144,0.45,-0.07,1.82,3
145,0.2,-0.01,1.78,3
146,0.26,0.02,1.51,3
147,0.37,-0.01,1.28,3
148,0.38,0.0,1.06,3
149,0.58,0.0,0.91,3
150,0.4,0.02,0.89,3
151,0.45,0.02,0.9,3
152,0.42,0.04,0.88,3
153,0.48,0.01,0.89,3
154,0.48,0.01,0.9,3
155,0.47,0.0,0.9,3
156,0.47,0.0,0.9,3
157,0.46,0.0,0.91,3
158,0.48,0.0,0.88,3
159,0.51,0.01,0.87,3
160,0.52,0.01,0.88,3
161,0.47,0.02,0.87,3
162,0.47,0.01,0.87,3
163,0.47,0.01,0.87,3
164,0.51,0.01,0.86,3
165,0.5,0.02,0.86,3
166,0.49,0.01,0.86,3
167,0.51,0.01,0.86,3
168,0.49,0.01,0.87,3
169,0.51,0.01,0.87,3
170,0.51,0.0,0.86,3
171,0.51,0.01,0.83,3
172,0.53,0.02,0.86,3
173,0.5,0.02,0.85,3
174,0.51,0.01,0.87,3
175,0.49,0.03,0.83,3
176,0.55,0.0,0.86,3
177,0.47,0.02,0.86,3
178,0.57,0.01,0.92,3
179,0.49,0.03,0.88,3
180,0.52,0.0,0.89,3
181,0.49,-0.01,0.78,3
182,0.48,0.05,0.84,3
183,0.52,-0.01,0.86,3
184,0.5,0.01,0.88,3
185,0.53,0.02,0.92,3
186,0.47,0.04,0.91,3
187,0.5,-0.01,0.86,3
188,0.54,0.02,0.82,3
189,0.54,-0.04,0.79,3
190,0.53,0.05,0.8,3
191,0.53,0.03,0.85,3
192,0.56,0.01,0.86,3
193,0.57,0.0,0.85,3
194,0.54,0.01,0.84,3
195,0.55,0.01,0.85,3
196,0.55,0.01,0.84,3
197,0.55,0.01,0.84,3
198,0.58,0.01,0.83,3
199,0.55,0.02,0.84,3
200,0.57,0.02,0.85,0
201,0.56,0.01,0.84,0
202,0.54,0.01,0.83,0
203,0.57,0.0,0.84,0
204,0.55,0.01,0.83,0
205,0.56,0.01,0.84,0
206,0.55,0.01,0.84,0
207,0.56,0.01,0.83,0
208,0.56,0.01,0.84,0
209,0.55,0.0,0.84,0
210,0.56,0.01,0.84,0
211,0.56,0.01,0.84,0
212,0.57,0.01,0.84,0
213,0.55,0.01,0.84,0
214,0.56,0.01,0.84,0
215,0.57,0.01,0.84,0
216,0.55,0.0,0.84,0
217,0.56,0.0,0.83,0
218,0.55,0.01,0.84,0
219,0.56,0.0,0.83,0
220,0.56,0.01,0.83,0
221,0.57,0.01,0.84,0
222,0.55,0.01,0.83,0
223,0.55,0.0,0.83,0
224,0.57,0.0,0.84,0
225,0.54,0.01,0.84,0
226,0.56,0.0,0.84,0
227,0.56,0.0,0.84,0
228,0.55,0.01,0.84,0
229,0.57,0.0,0.83,0
230,0.56,0.0,0.83,0
231,0.56,0.0,0.83,0
232,0.56,0.0,0.84,0
233,0.56,0.01,0.83,0
234,0.56,0.0,0.84,0
235,0.57,0.0,0.84,0
236,0.56,0.01,0.83,0
237,0.55,0.0,0.82,0
238,0.57,0.0,0.83,0
239,0.57,0.0,0.84,0
240,0.56,0.01,0.83,0
241,0.56,0.01,0.84,0
242,0.56,0.01,0.85,0
243,0.57,0.0,0.83,0
244,0.56,0.0,0.84,0
245,0.57,0.01,0.84,0
246,0.55,0.01,0.83,0
247,0.57,0.01,0.84,0
248,0.57,0.0,0.82,0
249,0.57,0.01,0.83,0
250,0.57,0.0,0.83,0
251,0.57,0.0,0.84,0
252,0.55,0.0,0.84,0
253,0.58,0.0,0.83,0
254,0.57,0.0,0.83,0
255,0.56,0.0,0.83,0
256,0.57,0.0,0.84,0
257,0.55,0.0,0.83,0
258,0.57,0.0,0.84,0
259,0.56,0.0,0.83,0
260,0.56,0.0,0.83,0
261,0.57,0.0,0.84,0
262,0.55,0.0,0.83,0
263,0.57,0.0,0.84,0
264,0.55,0.0,0.83,0
265,0.56,0.0,0.84,0
266,0.56,0.0,0.84,0
267,0.55,0.0,0.83,0
268,0.57,0.0,0.84,0
269,0.55,0.0,0.83,0
270,0.56,0.0,0.84,0
271,0.57,0.0,0.84,0
272,0.56,0.0,0.83,0
273,0.56,0.0,0.84,0
274,0.56,0.0,0.84,0
275,0.57,0.01,0.84,0
276,0.57,0.0,0.83,0
277,0.55,0.0,0.84,0
278,0.57,0.0,0.85,0
279,0.56,0.0,0.83,0
280,0.55,0.01,0.84,0
281,0.57,0.0,0.84,0
282,0.56,0.0,0.83,0
283,0.57,0.0,0.84,0
284,0.55,0.0,0.84,0
285,0.56,0.0,0.84,0
286,0.56,0.0,0.84,0
287,0.56,0.01,0.84,0
288,0.56,0.01,0.83,0
289,0.56,0.0,0.83,0
290,0.55,0.0,0.83,0
291,0.56,0.0,0.84,0
292,0.56,0.0,0.84,0
293,0.55,0.0,0.84,0
294,0.56,0.0,0.84,0
295,0.55,0.01,0.84,0
296,0.55,0.0,0.83,0
297,0.56,0.0,0.84,0
298,0.55,0.0,0.84,0
299,0.56,0.0,0.84,0
300,0.55,0.01,0.84,0
301,0.56,0.0,0.84,0
302,0.56,0.0,0.85,0
303,0.55,0.0,0.84,0
304,0.55,0.0,0.84,0
305,0.57,0.0,0.84,0
306,0.55,0.0,0.83,0
307,0.56,0.0,0.84,0
308,0.56,0.0,0.84,0
309,0.56,0.0,0.84,0
310,0.56,0.01,0.84,0
311,0.56,0.0,0.84,0
312,0.56,0.0,0.85,0
313,0.56,0.0,0.84,0
314,0.55,0.0,0.83,0
315,0.55,0.0,0.84,0
316,0.55,0.0,0.84,0
317,0.55,0.0,0.84,0
318,0.55,0.0,0.84,0
319,0.54,0.0,0.83,0
320,0.56,0.0,0.84,0
321,0.56,0.0,0.84,0
322,0.55,0.01,0.85,0
323,0.56,0.0,0.85,0
324,0.56,0.0,0.84,0
325,0.54,0.0,0.84,0
326,0.55,0.0,0.84,0
327,0.55,0.0,0.84,0
328,0.55,0.0,0.84,0
329,0.55,-0.01,0.84,0
330,0.56,-0.01,0.84,0
331,0.54,0.0,0.84,0
332,0.56,0.0,0.84,0
333,0.56,0.0,0.85,0
334,0.54,0.0,0.84,0
335,0.55,0.0,0.84,0
336,0.55,0.0,0.84,0
337,0.55,0.0,0.84,0
338,0.55,0.0,0.85,0
339,0.54,0.0,0.84,0
340,0.55,0.0,0.84,0
341,0.56,0.0,0.84,0
342,0.55,0.0,0.84,0
343,0.56,0.0,0.85,0
344,0.55,0.0,0.84,0
345,0.55,0.0,0.84,0
346,0.56,0.0,0.84,0
347,0.55,0.0,0.84,0
348,0.56,0.0,0.85,0
349,0.55,0.0,0.84,0
350,0.56,0.0,0.84,0
351,0.54,0.0,0.84,0
352,0.55,0.0,0.84,0
353,0.55,0.0,0.84,0
354,0.55,0.0,0.84,0
355,0.55,0.0,0.84,0
356,0.56,0.0,0.84,0
357,0.55,0.0,0.84,0
358,0.55,0.0,0.84,0
359,0.56,0.01,0.84,0
360,0.54,0.01,0.84,0
361,0.56,0.0,0.84,0
362,0.53,0.0,0.84,0
363,0.52,0.0,0.85,0
364,0.56,0.0,0.86,0
365,0.52,0.0,0.86,0
366,0.53,0.0,0.85,0
367,0.54,-0.01,0.85,0
368,0.52,0.0,0.86,0
369,0.53,0.0,0.86,0
370,0.47,0.0,0.86,0
371,0.49,0.01,0.87,0
372,0.48,0.0,0.85,0
373,0.53,0.0,0.87,0
374,0.47,0.0,0.85,0
375,0.48,0.0,0.88,0
376,0.47,-0.01,0.9,0
377,0.5,0.0,0.89,0
378,0.48,0.0,0.88,0
379,0.49,-0.04,0.89,0
380,0.48,0.02,0.89,0
381,0.53,0.0,0.87,0
382,0.49,0.0,0.84,0
383,0.53,0.01,0.85,0
384,0.53,0.01,0.84,0
385,0.52,0.01,0.84,0
386,0.55,0.0,0.85,0
387,0.53,0.0,0.86,0
388,0.53,0.0,0.86,0
389,0.52,0.0,0.84,0
390,0.54,0.01,0.85,0
391,0.53,0.0,0.85,0
392,0.54,0.0,0.84,0
393,0.54,0.0,0.83,0
394,0.55,0.0,0.85,0
395,0.54,0.01,0.85,0
396,0.55,0.0,0.85,0
397,0.55,0.01,0.85,0
398,0.54,0.0,0.85,0
399,0.54,0.01,0.85,0
400,0.54,0.01,0.85,3
401,0.54,0.0,0.84,3
402,0.54,0.0,0.84,3
403,0.54,0.0,0.85,3
404,0.55,0.0,0.85,3
405,0.54,0.0,0.84,3
406,0.53,0.01,0.85,3
407,0.55,0.0,0.86,3
408,0.54,0.0,0.85,3
409,0.54,0.0,0.85,3
410,0.54,0.01,0.85,3
411,0.54,0.01,0.85,3
412,0.54,0.0,0.85,3
413,0.54,0.0,0.85,3
414,0.54,0.0,0.85,3
415,0.55,0.0,0.85,3
416,0.54,0.0,0.85,3
417,0.53,0.01,0.85,3
418,0.54,0.01,0.84,3
419,0.53,0.1,0.86,3
420,0.5,0.24,0.89,3
421,0.37,0.49,0.94,3
422,0.43,0.6,0.9,3
423,0.61,0.55,0.88,3
424,0.71,0.46,0.83,3
425,0.76,0.27,0.78,3
426,0.85,0.07,0.75,3
427,0.83,-0.13,0.66,3
428,0.83,-0.33,0.6,3
429,0.77,-0.35,0.67,3
430,0.49,-0.2,0.8,3
431,0.33,-0.02,1.01,3
432,0.43,0.21,1.47,3
433,0.43,0.42,1.97,3
434,0.77,0.48,2.29,3
435,0.79,0.45,2.26,3
436,0.75,0.29,1.97,3
437,0.61,0.05,1.48,3
438,0.76,0.02,0.96,3
439,0.36,0.11,0.42,3
440,0.17,0.15,0.15,3
441,0.1,0.16,0.05,3
442,-0.07,-0.09,-0.04,3
443,-0.25,-0.25,-0.09,3
444,-0.31,-0.58,-0.06,3
445,-0.4,-0.72,-0.05,3
446,-0.33,-0.75,0.05,3
447,-0.26,-0.73,0.18,3
448,-0.32,-0.76,0.21,3
449,-0.21,-0.58,0.16,3
450,-0.13,-0.35,0.05,3
451,-0.17,-0.18,-0.09,3
452,-0.02,-0.05,-0.1,3
453,-0.01,0.1,-0.02,3
454,0.19,0.25,0.37,3
455,0.42,0.55,1.12,3
456,0.1,0.37,1.57,3
457,1.12,0.44,2.17,3
458,0.53,0.18,1.9,3
459,0.84,0.23,1.78,3
460,0.65,-0.07,1.47,3
461,0.58,-0.08,1.13,3
462,0.95,-0.29,0.94,3
463,0.97,-0.39,0.76,3
464,0.85,-0.24,0.65,3
465,0.96,0.1,0.76,3
466,0.77,0.47,0.92,3
467,0.65,0.75,0.95,3
468,0.65,0.79,0.94,3
469,0.45,0.66,0.77,3
470,0.61,0.44,0.76,3
471,0.47,0.21,0.7,3
472,0.57,0.04,0.72,3
473,0.7,0.0,0.76,3
474,0.71,-0.04,0.75,3
475,0.77,-0.05,0.79,3
476,0.68,-0.04,0.75,3
477,0.67,-0.02,0.73,3
478,0.68,-0.01,0.75,3
479,0.72,-0.04,0.74,3
480,0.68,-0.02,0.74,3
481,0.7,-0.01,0.73,3
482,0.66,0.0,0.74,3
483,0.71,0.0,0.74,3
484,0.65,0.02,0.75,3
485,0.69,0.0,0.73,3
486,0.69,0.01,0.74,3
487,0.66,0.01,0.74,3
488,0.66,0.01,0.74,3
489,0.66,0.0,0.76,3
490,0.63,0.0,0.71,3
491,0.64,0.02,0.73,3
492,0.7,-0.01,0.75,3
493,0.69,0.0,0.77,3
494,0.68,0.01,0.83,3
495,0.67,0.02,0.86,3
496,0.64,-0.03,0.83,3
497,0.71,0.02,0.72,3
498,0.65,-0.01,0.72,3
499,0.63,0.0,0.73,3
500,0.66,0.01,0.75,3
501,0.63,0.04,0.79,3
502,0.67,0.0,0.77,3
503,0.69,-0.01,0.74,3
504,0.71,0.02,0.73,3
505,0.67,0.01,0.74,3
506,0.76,0.01,0.73,3
507,0.7,0.0,0.74,3
508,0.68,-0.01,0.73,3
509,0.7,0.0,0.74,3
510,0.69,0.0,0.74,3
511,0.7,-0.01,0.73,3
512,0.68,0.0,0.73,3
513,0.69,-0.01,0.73,3
514,0.7,-0.01,0.73,3
515,0.68,-0.01,0.74,3
516,0.69,-0.01,0.74,3
517,0.7,-0.01,0.73,3
518,0.69,0.0,0.73,3
519,0.7,-0.01,0.73,3
520,0.7,-0.01,0.73,3
521,0.69,0.0,0.74,3
522,0.69,-0.02,0.73,3
523,0.7,-0.02,0.73,3
524,0.69,-0.01,0.73,3
525,0.69,-0.01,0.73,0
526,0.71,-0.02,0.72,0
527,0.7,-0.02,0.73,0
528,0.71,-0.03,0.73,0
529,0.72,-0.02,0.73,0
530,0.69,-0.01,0.71,0
531,0.7,-0.01,0.72,0
532,0.69,0.0,0.74,0
533,0.7,-0.01,0.73,0
534,0.71,-0.03,0.73,0
535,0.72,-0.03,0.73,0
536,0.7,-0.02,0.73,0
537,0.71,-0.02,0.73,0
538,0.72,-0.02,0.72,0
539,0.71,-0.02,0.72,0
540,0.7,-0.02,0.73,0
541,0.71,-0.03,0.72,0
542,0.72,-0.02,0.72,0
543,0.7,-0.02,0.73,0
544,0.72,-0.02,0.73,0
545,0.72,-0.02,0.72,0
546,0.71,-0.02,0.71,0
547,0.72,-0.02,0.72,0
548,0.71,-0.02,0.73,0
549,0.72,-0.03,0.73,0
550,0.72,-0.04,0.73,0
551,0.72,-0.04,0.72,0
552,0.72,-0.04,0.71,0
553,0.72,-0.04,0.71,0
554,0.71,-0.04,0.72,0
555,0.7,-0.03,0.71,0
556,0.71,-0.02,0.73,0
557,0.71,-0.02,0.73,0
558,0.7,-0.01,0.73,0
559,0.72,-0.02,0.73,0
560,0.71,-0.02,0.72,0
561,0.71,-0.02,0.72,0
562,0.7,-0.02,0.72,0
563,0.7,-0.02,0.72,0
564,0.72,-0.03,0.71,0
565,0.72,-0.03,0.72,0
566,0.7,-0.02,0.73,0
567,0.72,-0.02,0.73,0
568,0.72,-0.03,0.73,0
569,0.72,-0.03,0.73,0
570,0.71,-0.02,0.72,0
571,0.72,-0.02,0.71,0
572,0.72,-0.02,0.72,0
573,0.71,-0.01,0.72,0
574,0.71,-0.02,0.72,0
575,0.72,-0.02,0.72,0
576,0.71,-0.02,0.72,0
577,0.72,-0.02,0.72,0
578,0.71,-0.02,0.72,0
579,0.71,-0.03,0.72,0
580,0.72,-0.03,0.72,0
581,0.7,-0.03,0.72,0
582,0.71,-0.02,0.72,0
583,0.72,-0.03,0.72,0
584,0.7,-0.02,0.73,0
585,0.7,-0.02,0.73,0
586,0.71,-0.03,0.72,0
587,0.71,-0.02,0.72,0
588,0.72,-0.02,0.73,0
589,0.7,-0.03,0.72,0
590,0.72,-0.03,0.72,0
591,0.7,-0.02,0.73,0
592,0.71,-0.03,0.73,0
593,0.71,-0.03,0.73,0
594,0.71,-0.03,0.72,0
595,0.7,-0.02,0.72,0
596,0.71,-0.03,0.72,0
597,0.72,-0.02,0.72,0
598,0.71,-0.03,0.72,0
599,0.71,-0.03,0.73,0
600,0.71,-0.02,0.73,0
601,0.71,-0.02,0.73,0
602,0.71,-0.03,0.72,0
603,0.71,-0.02,0.72,0
604,0.7,-0.02,0.72,0
605,0.72,-0.03,0.72,0
606,0.7,-0.02,0.72,0
607,0.71,-0.02,0.73,0
608,0.71,-0.03,0.72,0
609,0.71,-0.02,0.73,0
610,0.71,-0.03,0.73,0
611,0.71,-0.02,0.73,0
612,0.71,-0.02,0.72,0
613,0.71,-0.02,0.72,0
614,0.7,-0.02,0.72,0
615,0.71,-0.02,0.72,0
616,0.71,-0.02,0.73,0
617,0.7,-0.03,0.73,0
618,0.71,-0.03,0.73,0
619,0.71,-0.03,0.73,0
620,0.7,-0.03,0.73,0
621,0.71,-0.03,0.72,0
622,0.7,-0.02,0.72,0
623,0.7,-0.02,0.72,0
624,0.71,-0.02,0.72,0
625,0.71,-0.02,0.73,0
626,0.7,-0.03,0.73,0
627,0.7,-0.03,0.73,0
628,0.71,-0.02,0.73,0
629,0.71,-0.02,0.73,0
630,0.7,-0.02,0.73,0
631,0.7,-0.03,0.72,0
632,0.71,-0.02,0.73,0
633,0.7,-0.02,0.73,0
634,0.69,-0.03,0.73,0
635,0.68,-0.03,0.73,0
636,0.7,-0.02,0.73,0
637,0.67,-0.02,0.74,0
638,0.73,-0.02,0.74,0
639,0.69,-0.03,0.73,0
640,0.7,-0.02,0.73,0
641,0.7,-0.02,0.74,0
642,0.67,-0.02,0.74,0
643,0.7,-0.02,0.76,0
644,0.63,-0.04,0.74,0
645,0.67,-0.02,0.74,0
646,0.64,-0.03,0.72,0
647,0.68,-0.01,0.75,0
648,0.6,-0.02,0.75,0
649,0.64,-0.02,0.8,0
650,0.63,-0.03,0.82,0
651,0.61,-0.03,0.78,0
652,0.61,0.0,0.79,0
653,0.62,-0.02,0.8,0
654,0.63,-0.01,0.75,0
655,0.63,-0.01,0.75,0
656,0.63,-0.03,0.74,0
657,0.66,-0.02,0.75,0
658,0.66,-0.01,0.75,0
659,0.69,-0.03,0.75,0
660,0.66,-0.01,0.75,0
661,0.68,-0.02,0.76,0
662,0.67,-0.02,0.75,0
663,0.67,-0.02,0.75,0
664,0.67,-0.02,0.75,0
665,0.67,-0.02,0.73,0
666,0.68,-0.02,0.73,0
667,0.67,-0.02,0.74,0
668,0.68,-0.02,0.74,0
669,0.67,-0.02,0.74,0
670,0.68,-0.03,0.74,0
671,0.68,-0.02,0.74,0
672,0.68,-0.02,0.74,0
673,0.68,-0.02,0.74,0
674,0.67,-0.02,0.74,0
675,0.68,-0.03,0.74,3
676,0.68,-0.03,0.74,3
677,0.67,-0.03,0.74,3
678,0.68,-0.04,0.74,3
679,0.68,-0.03,0.74,3
680,0.68,-0.04,0.74,3
681,0.67,-0.03,0.73,3
682,0.68,-0.02,0.73,3
683,0.68,-0.03,0.75,3
684,0.67,-0.02,0.75,3
685,0.69,-0.04,0.75,3
686,0.68,-0.04,0.75,3
687,0.68,-0.03,0.74,3
688,0.68,-0.04,0.74,3
689,0.66,-0.03,0.74,3
690,0.68,-0.04,0.74,3
691,0.68,-0.04,0.73,3
692,0.67,-0.03,0.74,3
693,0.68,-0.02,0.73,3
694,0.68,-0.02,0.73,3
695,0.67,0.02,0.72,3
696,0.68,0.13,0.7,3
697,0.61,0.35,0.79,3
698,0.48,0.45,0.78,3
699,0.58,0.53,0.84,3
700,0.76,0.48,0.94,3
701,0.76,0.44,0.98,3
702,0.85,0.37,1.12,3
703,0.84,0.31,1.21,3
704,0.68,0.2,1.24,3
705,0.88,0.06,1.23,3
706,0.82,-0.2,1.18,3
707,0.89,-0.3,1.16,3
708,0.92,-0.33,1.03,3
709,0.8,-0.36,0.87,3
710,0.72,-0.45,0.66,3
711,0.56,-0.47,0.45,3
712,0.45,-0.43,0.31,3
713,0.38,-0.38,0.37,3
714,0.21,-0.27,0.52,3
715,0.09,-0.19,0.77,3
716,-0.02,-0.06,1.07,3
717,-0.36,0.14,1.36,3
718,-0.48,0.2,1.49,3
719,-0.56,0.3,1.51,3
720,-0.79,0.33,1.43,3
721,-0.83,0.32,1.3,3
722,-0.82,0.25,1.12,3
723,-0.79,0.21,0.99,3
724,-0.63,0.18,0.86,3
725,-0.52,0.11,0.7,3
726,-0.41,0.06,0.51,3
727,-0.28,-0.08,0.42,3
728,-0.03,-0.16,0.29,3
729,0.33,-0.41,0.24,3
730,0.46,-0.76,0.12,3
731,0.72,-0.99,0.11,3
732,0.69,-1.33,0.06,3
733,0.69,-1.47,0.12,3
734,0.77,-1.51,0.17,3
735,0.81,-1.52,0.16,3
736,0.79,-1.4,0.05,3
737,0.72,-1.19,-0.05,3
738,0.57,-0.91,-0.02,3
739,0.41,-0.61,0.08,3
740,0.21,-0.36,0.16,3
741,0.05,-0.15,0.31,3
742,-0.17,0.05,0.53,3
743,-0.28,0.08,0.64,3
744,-0.33,0.31,1.0,3
745,-0.75,0.39,1.12,3
746,-0.65,0.53,1.42,3
747,-0.97,0.56,1.32,3
748,-0.7,0.5,1.35,3
749,-0.63,0.44,1.21,3
750,-0.22,0.36,1.04,3
751,0.09,0.22,0.92,3
752,0.45,-0.05,0.84,3
753,0.46,-0.22,0.72,3
754,0.73,-0.49,0.73,3
755,0.75,-0.58,0.65,3
756,0.97,-0.77,0.74,3
757,0.96,-0.76,0.76,3
758,0.83,-0.62,0.98,3
759,0.69,-0.56,0.92,3
760,0.84,-0.38,0.98,3
761,0.75,-0.22,0.98,3
762,0.98,0.0,0.98,3
763,0.86,0.23,0.97,3
764,0.71,0.34,0.94,3
765,0.9,0.31,0.87,3
766,0.71,0.39,0.75,3
767,0.71,0.31,0.74,3
768,0.71,0.25,0.67,3
769,0.72,0.1,0.66,3
770,0.76,0.0,0.6,3
771,0.77,-0.03,0.6,3
772,0.77,-0.01,0.62,3
773,0.75,0.0,0.65,3
774,0.83,-0.01,0.69,3
775,0.76,0.01,0.66,3
776,0.81,-0.02,0.63,3
777,0.77,-0.01,0.61,3
778,0.77,-0.02,0.6,3
779,0.78,-0.03,0.61,3
780,0.77,-0.01,0.62,3
781,0.8,-0.02,0.62,3
782,0.8,0.0,0.63,3
783,0.77,-0.02,0.6,3
784,0.75,0.01,0.65,3
785,0.7,-0.03,0.68,3
786,0.78,0.0,0.69,3
787,0.73,-0.01,0.67,3
788,0.76,-0.03,0.66,3
789,0.73,0.0,0.7,3
790,0.73,0.0,0.73,3
791,0.72,0.0,0.75,3
792,0.7,-0.04,0.66,3
793,0.72,-0.02,0.65,3
794,0.74,-0.01,0.63,3
795,0.67,0.01,0.73,3
796,0.68,0.03,0.78,3
797,0.66,0.01,0.8,3
798,0.75,-0.03,0.69,3
799,0.74,-0.01,0.62,3
800,0.7,-0.02,0.66,0
801,0.76,0.0,0.66,0
802,0.74,-0.03,0.67,0
803,0.74,-0.03,0.67,0
804,0.73,-0.02,0.68,0
805,0.73,-0.02,0.69,0
806,0.74,-0.03,0.68,0
807,0.74,-0.01,0.66,0
808,0.74,-0.01,0.66,0
809,0.73,-0.02,0.67,0
810,0.73,-0.01,0.67,0
811,0.73,-0.02,0.66,0
812,0.75,-0.03,0.68,0
813,0.74,-0.02,0.68,0
814,0.74,-0.02,0.66,0
815,0.74,-0.02,0.67,0
816,0.73,-0.01,0.67,0
817,0.75,-0.03,0.67,0
818,0.73,-0.02,0.67,0
819,0.74,-0.02,0.67,0
820,0.75,-0.03,0.68,0
821,0.73,-0.02,0.67,0
822,0.74,-0.02,0.67,0
823,0.73,-0.02,0.68,0
824,0.74,-0.03,0.67,0
825,0.74,-0.02,0.67,0
826,0.73,-0.02,0.67,0
827,0.74,-0.03,0.67,0
828,0.73,-0.02,0.67,0
829,0.74,-0.03,0.68,0
830,0.73,-0.02,0.67,0
831,0.74,-0.04,0.68,0
832,0.74,-0.04,0.69,0
833,0.73,-0.03,0.69,0
834,0.74,-0.02,0.68,0
835,0.73,-0.02,0.67,0
836,0.73,-0.03,0.67,0
837,0.74,-0.03,0.66,0
838,0.74,-0.04,0.67,0
839,0.74,-0.04,0.68,0
840,0.73,-0.03,0.68,0
841,0.74,-0.05,0.68,0
842,0.74,-0.04,0.67,0
843,0.73,-0.04,0.68,0
844,0.73,-0.04,0.68,0
845,0.73,-0.04,0.67,0
846,0.73,-0.04,0.67,0
847,0.73,-0.04,0.67,0
848,0.73,-0.04,0.67,0
849,0.73,-0.04,0.68,0
850,0.74,-0.06,0.68,0
851,0.73,-0.04,0.68,0
852,0.73,-0.04,0.68,0
853,0.74,-0.04,0.67,0
854,0.73,-0.04,0.68,0
855,0.74,-0.05,0.68,0
856,0.73,-0.05,0.68,0
857,0.74,-0.05,0.68,0
858,0.73,-0.04,0.68,0
859,0.73,-0.05,0.68,0
860,0.73,-0.05,0.67,0
861,0.74,-0.04,0.67,0
862,0.73,-0.05,0.67,0
863,0.74,-0.05,0.68,0
864,0.73,-0.05,0.68,0
865,0.73,-0.05,0.68,0
866,0.73,-0.05,0.68,0
867,0.73,-0.04,0.68,0
868,0.73,-0.05,0.67,0
869,0.73,-0.04,0.68,0
870,0.73,-0.04,0.68,0
871,0.73,-0.04,0.68,0
872,0.74,-0.04,0.68,0
873,0.74,-0.04,0.68,0
874,0.74,-0.05,0.68,0
875,0.73,-0.04,0.68,0
876,0.73,-0.04,0.68,0
877,0.74,-0.05,0.68,0
878,0.73,-0.05,0.68,0
879,0.73,-0.04,0.68,0
880,0.73,-0.04,0.68,0
881,0.74,-0.05,0.68,0
882,0.73,-0.04,0.67,0
883,0.73,-0.04,0.68,0
884,0.73,-0.04,0.68,0
885,0.73,-0.04,0.67,0
886,0.73,-0.05,0.68,0
887,0.73,-0.05,0.68,0
888,0.74,-0.05,0.68,0
889,0.73,-0.05,0.68,0
890,0.73,-0.05,0.68,0
891,0.73,-0.05,0.68,0
892,0.73,-0.04,0.68,0
893,0.73,-0.05,0.68,0
894,0.73,-0.05,0.68,0
895,0.73,-0.04,0.69,0
896,0.73,-0.05,0.69,0
897,0.73,-0.04,0.68,0
898,0.73,-0.05,0.68,0
899,0.73,-0.04,0.68,0
900,0.73,-0.04,0.68,0
901,0.74,-0.05,0.68,0
902,0.74,-0.04,0.69,0
903,0.73,-0.05,0.68,0
904,0.73,-0.05,0.68,0
905,0.73,-0.04,0.68,0
906,0.74,-0.05,0.68,0
907,0.73,-0.04,0.68,0
908,0.73,-0.04,0.68,0
909,0.73,-0.05,0.68,0
910,0.73,-0.04,0.68,0
911,0.73,-0.04,0.68,0
912,0.73,-0.04,0.68,0
913,0.73,-0.04,0.69,0
914,0.73,-0.05,0.68,0
915,0.73,-0.03,0.68,0
916,0.73,-0.04,0.7,0
917,0.73,-0.04,0.69,0
918,0.73,-0.05,0.69,0
919,0.73,-0.05,0.69,0
920,0.72,-0.05,0.71,0
921,0.73,-0.05,0.7,0
922,0.73,-0.04,0.7,0
923,0.7,-0.04,0.7,0
924,0.72,-0.05,0.71,0
925,0.69,-0.04,0.72,0
926,0.72,-0.05,0.73,0
927,0.71,-0.04,0.72,0
928,0.68,-0.02,0.7,0
929,0.73,-0.06,0.72,0
930,0.66,-0.03,0.74,0
931,0.71,-0.05,0.76,0
932,0.68,-0.05,0.74,0
933,0.7,-0.04,0.73,0
934,0.7,-0.03,0.74,0
935,0.72,-0.06,0.73,0
936,0.7,-0.05,0.72,0
937,0.71,-0.02,0.73,0
938,0.72,-0.05,0.71,0
939,0.72,-0.04,0.72,0
940,0.73,-0.03,0.72,0
941,0.72,-0.04,0.7,0
942,0.72,-0.04,0.7,0
943,0.72,-0.04,0.71,0
944,0.71,-0.05,0.7,0
945,0.72,-0.05,0.69,0
946,0.72,-0.04,0.71,0
947,0.73,-0.04,0.71,0
948,0.72,-0.05,0.71,0
949,0.73,-0.04,0.71,0
950,0.73,-0.05,0.72,3
951,0.72,-0.05,0.71,3
952,0.73,-0.04,0.72,3
953,0.72,-0.05,0.71,3
954,0.72,-0.04,0.71,3
955,0.72,-0.04,0.71,3
956,0.71,-0.04,0.71,3
957,0.72,-0.05,0.71,3
958,0.72,-0.05,0.72,3
959,0.72,-0.05,0.72,3
960,0.72,-0.05,0.72,3
961,0.72,-0.04,0.72,3
962,0.72,-0.05,0.71,3
963,0.72,-0.04,0.71,3
964,0.73,-0.05,0.71,3
965,0.71,-0.04,0.71,3
966,0.72,-0.04,0.71,3
967,0.72,-0.04,0.73,3
968,0.72,-0.07,0.75,3
969,0.72,-0.04,0.9,3
970,0.71,-0.1,1.27,3
971,0.71,-0.26,1.63,3
972,0.87,-0.35,2.03,3
973,1.37,-0.45,2.03,3
974,1.47,-0.46,1.69,3
975,1.43,-0.46,1.0,3
976,1.13,-0.4,0.47,3
977,0.46,-0.22,-0.08,3
978,0.12,0.01,-0.21,3
979,-0.23,0.13,-0.29,3
980,-0.27,0.25,-0.27,3
981,-0.33,0.25,-0.34,3
982,-0.28,0.19,-0.33,3
983,-0.1,0.24,-0.24,3
984,0.02,0.21,-0.05,3
985,0.6,0.03,0.63,3
986,0.38,0.22,0.62,3
987,1.19,0.11,1.19,3
988,1.29,0.35,1.36,3
989,2.0,0.19,1.8,3
990,1.33,0.34,2.01,3
991,1.02,0.38,2.08,3
992,0.74,0.38,1.92,3
993,0.86,0.39,1.62,3
994,1.16,0.5,1.68,3
995,1.15,0.7,1.76,3
996,1.34,0.79,1.56,3
997,1.13,0.75,1.23,3
998,0.95,0.78,0.87,3
999,0.81,0.64,0.5,3
1000,0.17,0.46,0.1,3
1001,0.45,0.09,0.02,3
1002,0.0,-0.28,-0.14,3
1003,-0.15,-0.5,-0.21,3
1004,-0.27,-0.55,-0.15,3
1005,-0.4,-0.5,-0.11,3
1006,-0.5,-0.5,-0.06,3
1007,-0.49,-0.49,-0.06,3
1008,-0.39,-0.35,-0.09,3
1009,-0.27,-0.23,-0.11,3
1010,-0.01,-0.22,0.04,3
1011,0.03,-0.23,0.16,3
1012,0.31,-0.15,0.48,3
1013,0.55,-0.14,0.77,3
1014,0.8,0.09,1.02,3
1015,1.08,0.02,1.32,3
1016,1.18,0.21,1.46,3
1017,1.29,0.16,1.7,3
1018,1.19,0.03,1.48,3
1019,1.03,0.28,1.41,3
1020,0.82,0.21,1.31,3
1021,0.76,0.22,1.07,3
1022,0.68,0.28,0.83,3
1023,0.73,0.23,0.71,3
1024,0.85,0.13,0.6,3
1025,0.68,0.21,0.5,3
1026,0.73,0.14,0.54,3
1027,0.73,0.1,0.54,3
1028,0.73,0.1,0.61,3
1029,0.81,0.03,0.61,3
1030,0.81,0.01,0.64,3
1031,0.78,0.01,0.59,3
1032,0.82,0.03,0.6,3
1033,0.8,0.04,0.6,3
1034,0.83,0.04,0.61,3
1035,0.82,0.03,0.59,3
1036,0.77,0.04,0.58,3
1037,0.79,0.03,0.58,3
1038,0.8,0.06,0.6,3
1039,0.78,0.02,0.6,3
1040,0.82,0.04,0.59,3
1041,0.75,0.05,0.59,3
1042,0.8,0.05,0.6,3
1043,0.79,0.04,0.6,3
1044,0.79,0.04,0.6,3
1045,0.8,0.03,0.61,3
1046,0.81,0.03,0.59,3
1047,0.79,0.04,0.6,3
1048,0.82,0.03,0.59,3
1049,0.8,0.04,0.6,3
1050,0.79,0.04,0.59,3
1051,0.79,0.05,0.59,3
1052,0.8,0.05,0.59,3
1053,0.79,0.05,0.6,3
1054,0.79,0.04,0.59,3
1055,0.79,0.04,0.59,3
1056,0.78,0.04,0.6,3
1057,0.79,0.03,0.6,3
1058,0.78,0.04,0.6,3
1059,0.81,0.04,0.6,3
1060,0.78,0.04,0.6,3
1061,0.79,0.05,0.6,3
1062,0.78,0.04,0.6,3
1063,0.78,0.04,0.6,3
1064,0.79,0.04,0.6,3
1065,0.78,0.04,0.6,3
1066,0.78,0.04,0.6,3
1067,0.8,0.04,0.6,3
1068,0.78,0.04,0.6,3
1069,0.79,0.04,0.6,3
1070,0.79,0.04,0.6,3
1071,0.78,0.04,0.6,3
1072,0.79,0.04,0.6,3
1073,0.78,0.04,0.6,3
1074,0.78,0.04,0.6,3
1075,0.78,0.04,0.6,3
1076,0.78,0.03,0.6,3
1077,0.77,0.03,0.6,3
1078,0.8,0.04,0.6,3
1079,0.73,0.07,0.61,3
1080,0.82,0.02,0.61,3
1081,0.75,0.04,0.64,3
1082,0.78,0.04,0.62,3
1083,0.78,0.02,0.65,3
1084,0.81,0.03,0.68,3
1085,0.78,0.04,0.64,3
1086,0.76,0.05,0.58,3
1087,0.73,0.08,0.59,3
1088,0.75,0.04,0.59,3
1089,0.74,0.05,0.63,3
1090,0.77,0.04,0.69,3
1091,0.75,0.04,0.7,3
1092,0.77,0.01,0.67,3
1093,0.8,0.08,0.61,3
1094,0.77,0.06,0.6,3
1095,0.77,0.05,0.59,3
1096,0.78,0.04,0.59,3
1097,0.79,0.07,0.58,3
1098,0.81,0.05,0.59,3
1099,0.79,0.05,0.59,3
1100,0.81,0.04,0.6,0
1101,0.81,0.04,0.59,0
1102,0.8,0.05,0.6,0
1103,0.8,0.03,0.59,0
1104,0.81,0.03,0.59,0
1105,0.8,0.04,0.59,0
1106,0.81,0.03,0.59,0
1107,0.79,0.03,0.58,0
1108,0.81,0.03,0.57,0
1109,0.8,0.04,0.58,0
1110,0.81,0.03,0.58,0
1111,0.8,0.02,0.59,0
1112,0.81,0.03,0.59,0
1113,0.81,0.02,0.58,0
1114,0.82,0.02,0.58,0
1115,0.81,0.03,0.57,0
1116,0.82,0.02,0.57,0
1117,0.82,0.02,0.57,0
1118,0.83,0.02,0.58,0
1119,0.83,0.02,0.58,0
1120,0.82,0.03,0.58,0
1121,0.82,0.02,0.57,0
1122,0.82,0.02,0.56,0
1123,0.83,0.03,0.57,0
1124,0.83,0.03,0.57,0
1125,0.82,0.02,0.57,0
1126,0.82,0.02,0.57,0
1127,0.82,0.02,0.57,0
1128,0.83,0.02,0.57,0
1129,0.83,0.01,0.56,0
1130,0.83,0.02,0.57,0
1131,0.83,0.02,0.57,0
1132,0.82,0.03,0.56,0
1133,0.81,0.03,0.55,0
1134,0.81,0.04,0.56,0
1135,0.82,0.06,0.57,0
1136,0.81,0.03,0.56,0
1137,0.83,0.02,0.57,0
1138,0.79,0.01,0.57,0
1139,0.83,0.02,0.57,0
1140,0.85,0.03,0.58,0
1141,0.84,0.03,0.57,0
1142,0.83,0.04,0.56,0
1143,0.8,0.07,0.51,0
1144,0.82,0.03,0.56,0
1145,0.84,0.03,0.56,0
1146,0.84,0.04,0.55,0
1147,0.85,0.05,0.57,0
1148,0.84,0.04,0.56,0
1149,0.83,0.03,0.56,0
1150,0.84,0.02,0.55,0
1151,0.84,0.02,0.54,0
1152,0.85,0.03,0.53,0
1153,0.85,0.04,0.53,0
1154,0.85,0.04,0.53,0
1155,0.84,0.05,0.54,0
1156,0.83,0.04,0.54,0
1157,0.85,0.04,0.54,0
1158,0.85,0.04,0.55,0
1159,0.84,0.03,0.55,0
1160,0.85,0.03,0.55,0
1161,0.84,0.03,0.55,0
1162,0.84,0.03,0.56,0
1163,0.84,0.04,0.55,0
1164,0.83,0.04,0.53,0
1165,0.84,0.04,0.53,0
1166,0.85,0.05,0.54,0
1167,0.85,0.04,0.54,0
1168,0.84,0.05,0.55,0
1169,0.82,0.06,0.53,0
1170,0.78,0.06,0.49,0
1171,0.84,0.04,0.54,0
1172,0.87,0.04,0.58,0
1173,0.85,0.03,0.56,0
1174,0.84,0.04,0.56,0
1175,0.84,0.06,0.57,0
1176,0.84,0.05,0.57,0
1177,0.84,0.05,0.55,0
1178,0.84,0.05,0.54,0
1179,0.84,0.05,0.55,0
1180,0.83,0.04,0.55,0
1181,0.84,0.03,0.58,0
1182,0.83,0.04,0.57,0
1183,0.85,0.03,0.54,0
1184,0.85,0.01,0.53,0
1185,0.8,0.02,0.51,0
1186,0.79,0.06,0.52,0
1187,0.85,0.05,0.56,0
1188,0.85,0.03,0.56,0
1189,0.82,0.03,0.57,0
1190,0.83,0.03,0.57,0
1191,0.84,0.03,0.56,0
1192,0.85,0.03,0.56,0
1193,0.84,0.03,0.56,0
1194,0.83,0.04,0.56,0
1195,0.84,0.03,0.55,0
1196,0.83,0.04,0.54,0
1197,0.84,0.04,0.55,0
1198,0.84,0.03,0.55,0
1199,0.85,0.04,0.55,0
1200,0.84,0.04,0.56,0
1201,0.84,0.03,0.56,0
1202,0.83,0.03,0.56,0
1203,0.84,0.03,0.56,0
1204,0.84,0.04,0.56,0
1205,0.84,0.04,0.55,0
1206,0.83,0.04,0.55,0
1207,0.83,0.02,0.57,0
1208,0.8,0.04,0.58,0
1209,0.82,0.03,0.58,0
1210,0.84,0.03,0.59,0
1211,0.79,0.02,0.59,0
1212,0.83,0.04,0.6,0
1213,0.8,0.02,0.59,0
1214,0.78,0.02,0.57,0
1215,0.81,0.03,0.59,0
1216,0.79,0.0,0.58,0
1217,0.77,0.04,0.58,0
1218,0.83,0.01,0.6,0
1219,0.79,0.03,0.59,0
1220,0.81,0.02,0.61,0
1221,0.81,0.03,0.58,0
1222,0.78,0.03,0.6,0
1223,0.77,0.03,0.6,0
1224,0.78,0.04,0.63,0
1225,0.81,0.03,0.62,0
1226,0.81,0.0,0.64,0
1227,0.78,0.04,0.61,0
1228,0.83,0.05,0.55,0
1229,0.79,0.04,0.57,0
1230,0.81,0.02,0.59,0
1231,0.81,0.03,0.57,0
1232,0.82,0.04,0.59,0
1233,0.81,0.03,0.6,0
1234,0.82,0.04,0.6,0
1235,0.84,0.03,0.59,0
1236,0.81,0.03,0.58,0
1237,0.82,0.04,0.58,0
1238,0.83,0.03,0.57,0
1239,0.8,0.04,0.56,0
1240,0.81,0.03,0.57,0
1241,0.81,0.03,0.58,0
1242,0.83,0.03,0.57,0
1243,0.83,0.03,0.58,0
1244,0.82,0.03,0.58,0
1245,0.81,0.03,0.58,0
1246,0.82,0.03,0.58,0
1247,0.81,0.03,0.58,0
1248,0.8,0.03,0.58,0
1249,0.82,0.03,0.58,0
1250,0.82,0.03,0.58,3
1251,0.8,0.04,0.58,3
1252,0.81,0.03,0.58,3
1253,0.8,0.03,0.58,3
1254,0.82,0.03,0.58,3
1255,0.81,0.03,0.58,3
1256,0.82,0.04,0.58,3
1257,0.81,0.03,0.58,3
1258,0.82,0.03,0.58,3
1259,0.82,0.03,0.59,3
1260,0.81,0.04,0.58,3
1261,0.82,0.04,0.57,3
1262,0.82,0.03,0.58,3
1263,0.82,0.04,0.57,3
1264,0.83,0.03,0.58,3
1265,0.81,0.03,0.58,3
1266,0.81,0.03,0.57,3
1267,0.82,0.04,0.57,3
1268,0.82,0.04,0.57,3
1269,0.81,0.03,0.57,3
1270,0.82,0.04,0.56,3
1271,0.83,0.04,0.57,3
1272,0.78,0.03,0.58,3
1273,0.75,0.03,0.56,3
1274,0.79,0.03,0.59,3
1275,0.85,0.03,0.74,3
1276,0.89,0.08,1.15,3
1277,1.04,0.22,1.57,3
1278,1.1,0.38,1.99,3
1279,1.16,0.51,1.99,3
1280,1.37,0.49,1.73,3
1281,1.36,0.46,1.33,3
1282,1.2,0.43,0.98,3
1283,0.9,0.37,0.72,3
1284,0.61,0.38,0.3,3
1285,0.36,0.19,0.12,3
1286,-0.13,0.08,-0.24,3
1287,0.05,-0.23,-0.4,3
1288,-0.2,-0.53,-0.38,3
1289,-0.42,-0.53,-0.28,3
1290,-0.42,-0.39,-0.23,3
1291,-0.24,-0.31,-0.16,3
1292,-0.26,-0.25,-0.15,3
1293,-0.2,0.01,-0.17,3
1294,-0.03,0.14,-0.02,3
1295,0.28,0.2,0.38,3
1296,0.29,0.4,0.71,3
1297,0.93,0.56,0.99,3
1298,1.29,0.66,1.43,3
1299,1.26,0.69,1.59,3
1300,1.54,0.83,2.16,3
1301,0.67,0.79,2.51,3
1302,0.61,0.86,2.57,3
1303,0.31,0.87,2.27,3
1304,0.48,0.88,2.01,3
1305,0.8,0.79,1.97,3
1306,0.98,0.78,1.82,3
1307,0.79,0.84,1.5,3
1308,0.65,1.06,0.91,3
1309,0.43,0.9,0.32,3
1310,0.21,0.53,-0.31,3
1311,-0.03,0.01,-0.41,3
1312,-0.11,-0.28,-0.42,3
1313,-0.41,-0.5,-0.35,3
1314,-0.46,-0.49,-0.35,3
1315,-0.28,-0.52,-0.3,3
1316,-0.22,-0.44,-0.25,3
1317,-0.19,-0.21,-0.34,3
1318,-0.27,-0.14,-0.28,3
1319,0.0,0.01,-0.19,3
1320,0.28,0.17,0.2,3
1321,0.37,0.27,0.72,3
1322,0.63,0.43,1.19,3
1323,0.83,0.33,1.89,3
1324,0.8,0.45,1.62,3
1325,1.18,0.41,1.96,3
1326,0.77,0.48,1.74,3
1327,0.89,0.41,1.73,3
1328,0.52,0.2,1.3,3
1329,0.68,0.21,0.97,3
1330,0.8,0.02,0.76,3
1331,0.9,-0.14,0.63,3
1332,0.91,-0.01,0.66,3
1333,0.74,0.11,0.69,3
1334,0.54,0.35,0.75,3
1335,0.69,0.38,0.77,3
1336,0.83,0.35,0.75,3
1337,0.74,0.25,0.71,3
1338,0.77,0.22,0.66,3
1339,0.65,0.22,0.66,3
1340,0.74,0.15,0.61,3
1341,0.73,0.18,0.62,3
1342,0.73,0.12,0.57,3
1343,0.82,0.1,0.61,3
1344,0.8,0.02,0.6,3
1345,0.78,0.03,0.61,3
1346,0.81,0.01,0.6,3
1347,0.78,0.04,0.59,3
1348,0.79,0.05,0.6,3
1349,0.81,0.06,0.62,3
1350,0.79,0.05,0.61,3
1351,0.84,0.01,0.56,3
1352,0.78,0.03,0.55,3
1353,0.83,0.04,0.58,3
1354,0.79,0.04,0.59,3
1355,0.79,0.03,0.59,3
1356,0.83,0.04,0.58,3
1357,0.81,0.04,0.58,3
1358,0.79,0.04,0.58,3
1359,0.81,0.05,0.6,3
1360,0.82,0.06,0.59,3
1361,0.78,0.05,0.6,3
1362,0.79,0.05,0.58,3
1363,0.79,0.06,0.58,3
1364,0.8,0.08,0.59,3
1365,0.82,0.03,0.61,3
1366,0.76,0.04,0.58,3
1367,0.77,0.1,0.63,3
1368,0.78,0.07,0.66,3
1369,0.76,0.06,0.65,3
1370,0.81,0.04,0.58,3
1371,0.79,0.1,0.58,3
1372,0.75,0.04,0.57,3
1373,0.76,0.08,0.6,3
1374,0.8,0.07,0.65,3
1375,0.78,0.06,0.67,3
1376,0.77,0.03,0.63,3
1377,0.85,0.07,0.58,3
1378,0.77,0.07,0.57,3
1379,0.82,0.08,0.59,3
1380,0.83,0.1,0.55,3
1381,0.8,0.02,0.57,3
1382,0.82,0.06,0.58,3
1383,0.81,0.05,0.59,3
1384,0.82,0.06,0.59,3
1385,0.82,0.05,0.59,3
1386,0.82,0.04,0.57,3
1387,0.82,0.05,0.58,3
1388,0.82,0.04,0.58,3
1389,0.83,0.04,0.55,3
1390,0.81,0.05,0.56,3
1391,0.82,0.04,0.56,3
1392,0.84,0.04,0.55,3
1393,0.82,0.06,0.56,3
1394,0.83,0.04,0.56,3
1395,0.83,0.04,0.54,3
1396,0.82,0.05,0.55,3
1397,0.84,0.04,0.55,3
1398,0.84,0.05,0.56,3
1399,0.83,0.04,0.56,3
1400,0.84,0.04,0.56,0
1401,0.84,0.04,0.57,0
1402,0.84,0.04,0.56,0
1403,0.84,0.04,0.55,0
1404,0.84,0.04,0.56,0
1405,0.83,0.04,0.55,0
1406,0.83,0.04,0.54,0
1407,0.84,0.04,0.54,0
1408,0.85,0.04,0.54,0
1409,0.84,0.05,0.55,0
1410,0.84,0.04,0.55,0
1411,0.85,0.04,0.55,0
1412,0.84,0.04,0.54,0
1413,0.85,0.04,0.54,0
1414,0.84,0.04,0.53,0
1415,0.83,0.05,0.53,0
1416,0.85,0.04,0.54,0
1417,0.85,0.03,0.55,0
1418,0.84,0.04,0.55,0
1419,0.85,0.04,0.55,0
1420,0.84,0.03,0.54,0
1421,0.84,0.04,0.54,0
1422,0.84,0.04,0.53,0
1423,0.84,0.05,0.54,0
1424,0.85,0.05,0.54,0
1425,0.85,0.04,0.55,0
1426,0.83,0.05,0.55,0
1427,0.84,0.04,0.55,0
1428,0.84,0.05,0.54,0
1429,0.84,0.05,0.55,0
1430,0.84,0.04,0.55,0
1431,0.84,0.04,0.54,0
1432,0.83,0.04,0.54,0
1433,0.84,0.04,0.55,0
1434,0.84,0.04,0.55,0
1435,0.85,0.04,0.55,0
1436,0.84,0.04,0.55,0
1437,0.84,0.04,0.55,0
1438,0.84,0.04,0.54,0
1439,0.83,0.04,0.54,0
1440,0.84,0.04,0.54,0
1441,0.84,0.04,0.54,0
1442,0.83,0.04,0.55,0
1443,0.85,0.04,0.55,0
1444,0.84,0.04,0.55,0
1445,0.84,0.04,0.55,0
1446,0.85,0.04,0.54,0
1447,0.84,0.04,0.55,0
1448,0.84,0.04,0.55,0
1449,0.84,0.04,0.55,0
1450,0.84,0.04,0.55,0
1451,0.84,0.05,0.55,0
1452,0.85,0.04,0.54,0
1453,0.83,0.05,0.54,0
1454,0.84,0.04,0.54,0
1455,0.84,0.04,0.54,0
1456,0.84,0.04,0.55,0
1457,0.84,0.04,0.56,0
1458,0.84,0.04,0.55,0
1459,0.84,0.04,0.55,0
1460,0.84,0.04,0.55,0
1461,0.83,0.04,0.54,0
1462,0.84,0.04,0.54,0
1463,0.84,0.04,0.55,0
1464,0.84,0.04,0.55,0
1465,0.84,0.04,0.55,0
1466,0.83,0.04,0.55,0
1467,0.83,0.04,0.54,0
1468,0.85,0.04,0.55,0
1469,0.84,0.05,0.55,0
1470,0.83,0.04,0.55,0
1471,0.83,0.04,0.56,0
1472,0.84,0.05,0.56,0
1473,0.83,0.04,0.57,0
1474,0.84,0.04,0.57,0
1475,0.81,0.05,0.57,0
1476,0.82,0.05,0.57,0
1477,0.82,0.05,0.58,0
1478,0.81,0.05,0.58,0
1479,0.81,0.04,0.56,0
1480,0.8,0.06,0.58,0
1481,0.78,0.05,0.57,0
1482,0.85,0.06,0.59,0
1483,0.81,0.05,0.59,0
1484,0.78,0.06,0.58,0
1485,0.81,0.06,0.59,0
1486,0.78,0.05,0.59,0
1487,0.83,0.04,0.6,0
1488,0.78,0.06,0.61,0
1489,0.79,0.04,0.6,0
1490,0.75,0.07,0.61,0
1491,0.79,0.07,0.63,0
1492,0.78,0.05,0.59,0
1493,0.78,0.05,0.61,0
1494,0.74,0.07,0.67,0
1495,0.79,0.06,0.62,0
1496,0.79,0.05,0.59,0
1497,0.78,0.04,0.6,0
1498,0.76,0.04,0.59,0
1499,0.78,0.05,0.59,0
1500,0.78,0.05,0.6,0
1501,0.78,0.05,0.61,0
1502,0.78,0.06,0.6,0
1503,0.78,0.03,0.6,0
1504,0.81,0.05,0.6,0
1505,0.79,0.04,0.59,0
1506,0.79,0.04,0.59,0
1507,0.79,0.04,0.59,0
1508,0.81,0.04,0.59,0
1509,0.8,0.04,0.59,0
1510,0.79,0.04,0.59,0
1511,0.8,0.04,0.59,0
1512,0.8,0.04,0.59,0
1513,0.8,0.04,0.59,0
1514,0.8,0.05,0.59,0
1515,0.8,0.04,0.59,0
1516,0.79,0.04,0.59,0
1517,0.8,0.04,0.59,0
1518,0.8,0.04,0.59,0
1519,0.8,0.04,0.59,0
1520,0.8,0.04,0.59,0
1521,0.81,0.04,0.59,0
1522,0.81,0.04,0.59,0
1523,0.8,0.04,0.59,0
1524,0.81,0.04,0.59,0
1525,0.8,0.04,0.59,3
1526,0.8,0.05,0.58,3
1527,0.82,0.04,0.59,3
1528,0.81,0.04,0.59,3
1529,0.79,0.04,0.59,3
1530,0.81,0.04,0.59,3
1531,0.8,0.04,0.58,3
1532,0.81,0.04,0.59,3
1533,0.81,0.05,0.59,3
1534,0.8,0.04,0.59,3
1535,0.81,0.04,0.59,3
1536,0.8,0.04,0.58,3
1537,0.8,0.04,0.59,3
1538,0.8,0.04,0.59,3
1539,0.81,0.05,0.59,3
1540,0.82,0.04,0.59,3
1541,0.79,0.04,0.58,3
1542,0.8,0.04,0.58,3
1543,0.82,0.05,0.58,3
1544,0.8,0.05,0.57,3
1545,0.81,0.04,0.58,3
1546,0.79,0.05,0.58,3
1547,0.79,0.05,0.59,3
1548,0.77,0.06,0.65,3
1549,0.72,0.09,0.76,3
1550,0.71,0.14,1.08,3
1551,0.71,0.33,1.64,3
1552,1.1,0.49,1.93,3
1553,1.04,0.49,1.9,3
1554,0.59,0.48,1.5,3
1555,0.84,0.54,1.18,3
1556,0.56,0.78,0.2,3
1557,1.05,0.8,-0.28,3
1558,0.62,0.51,-0.46,3
1559,0.69,0.15,-0.01,3
1560,0.45,-0.22,0.44,3
1561,0.51,-0.23,0.71,3
1562,0.49,-0.32,0.67,3
1563,0.6,-0.37,0.69,3
1564,0.47,-0.34,0.73,3
1565,0.52,-0.39,0.77,3
1566,0.48,-0.37,0.78,3
1567,0.5,-0.38,0.83,3
1568,0.55,-0.37,0.81,3
1569,0.47,-0.3,0.79,3
1570,0.52,-0.26,0.7,3
1571,0.55,-0.18,0.43,3
1572,0.81,0.03,0.0,3
1573,1.44,0.58,-0.52,3
1574,1.62,1.92,-1.13,3
1575,1.17,1.01,0.18,3
1576,-0.33,0.83,1.54,3
1577,0.34,0.49,2.58,3
1578,0.91,0.39,1.63,3
1579,1.82,0.01,0.89,3
1580,1.47,0.0,0.67,3
1581,1.21,0.08,0.61,3
1582,0.96,0.04,0.67,3
1583,0.94,-0.07,0.48,3
1584,0.96,-0.04,0.26,3
1585,0.98,-0.03,0.15,3
1586,0.9,-0.04,0.19,3
1587,0.9,0.05,0.2,3
1588,0.99,-0.07,0.27,3
1589,0.97,-0.06,0.33,3
1590,0.96,0.03,0.43,3
1591,1.05,0.17,0.7,3
1592,1.12,0.34,0.99,3
1593,1.31,0.56,1.38,3
1594,1.7,0.68,1.84,3
1595,1.0,0.71,1.96,3
1596,1.19,0.9,1.42,3
1597,0.97,1.52,-0.21,3
1598,1.0,1.93,-1.39,3
1599,1.24,0.95,-1.05,3
1600,0.53,-0.43,-0.71,3
1601,0.43,-0.1,0.32,3
1602,0.31,-0.16,0.45,3
1603,0.74,-0.36,0.28,3
1604,0.72,-0.18,0.06,3
1605,0.68,0.26,-0.5,3
1606,1.09,0.82,-1.01,3
1607,1.02,1.53,-0.9,3
1608,1.06,0.75,0.4,3
1609,0.39,0.83,1.41,3
1610,1.38,0.63,1.98,3
1611,1.13,0.59,1.3,3
1612,1.93,0.49,0.94,3
1613,1.18,0.42,0.61,3
1614,1.16,0.31,0.54,3
1615,0.94,0.13,0.36,3
1616,0.98,0.0,0.18,3
1617,0.93,-0.02,0.0,3
1618,1.07,0.02,0.08,3
1619,1.0,0.0,0.12,3
1620,0.91,0.1,0.12,3
1621,1.04,0.04,0.11,3
1622,0.97,0.04,0.09,3
1623,0.98,0.03,0.13,3
1624,0.96,0.06,0.12,3
1625,0.96,0.03,0.14,3
1626,0.97,0.08,0.12,3
1627,0.97,0.01,0.19,3
1628,1.0,0.1,0.2,3
1629,1.02,-0.01,0.11,3
1630,0.95,0.11,0.12,3
1631,0.94,0.11,0.18,3
1632,0.96,0.07,0.22,3
1633,0.95,0.03,0.2,3
1634,0.98,0.06,0.15,3
1635,0.97,0.05,0.21,3
1636,0.97,0.06,0.25,3
1637,0.9,0.06,0.28,3
1638,0.95,0.04,0.3,3
1639,0.93,0.08,0.28,3
1640,1.01,0.08,0.23,3
1641,0.95,0.06,0.2,3
1642,0.96,0.04,0.19,3
1643,0.97,0.06,0.21,3
1644,0.97,0.04,0.21,3
1645,0.96,0.05,0.22,3
1646,0.97,0.04,0.22,3
1647,0.97,0.03,0.21,3
1648,0.96,0.04,0.21,3
1649,0.97,0.05,0.21,3
1650,0.96,0.05,0.22,0
1651,0.96,0.04,0.22,0
1652,0.95,0.05,0.24,0
1653,0.96,0.02,0.25,0
1654,0.96,0.03,0.24,0
1655,0.96,0.03,0.23,0
1656,0.97,0.03,0.24,0
1657,0.96,0.04,0.23,0
1658,0.96,0.04,0.22,0
1659,0.97,0.03,0.22,0
1660,0.96,0.04,0.23,0
1661,0.96,0.03,0.22,0
1662,0.96,0.04,0.23,0
1663,0.96,0.04,0.23,0
1664,0.96,0.03,0.23,0
1665,0.96,0.03,0.22,0
1666,0.96,0.03,0.24,0
1667,0.96,0.03,0.23,0
1668,0.95,0.05,0.23,0
1669,0.96,0.03,0.23,0
1670,0.96,0.03,0.23,0
1671,0.96,0.03,0.23,0
1672,0.96,0.04,0.24,0
1673,0.96,0.04,0.23,0
1674,0.96,0.03,0.22,0
1675,0.96,0.03,0.23,0
1676,0.96,0.03,0.22,0
1677,0.96,0.04,0.23,0
1678,0.96,0.03,0.23,0
1679,0.96,0.03,0.23,0
1680,0.96,0.03,0.23,0
1681,0.96,0.03,0.23,0
1682,0.96,0.04,0.23,0
1683,0.96,0.03,0.23,0
1684,0.96,0.04,0.23,0
1685,0.96,0.03,0.23,0
1686,0.96,0.03,0.23,0
1687,0.96,0.03,0.23,0
1688,0.96,0.03,0.23,0
1689,0.96,0.03,0.23,0
1690,0.96,0.03,0.24,0
1691,0.96,0.03,0.23,0
1692,0.96,0.03,0.24,0
1693,0.96,0.04,0.24,0
1694,0.96,0.04,0.25,0
1695,0.96,0.04,0.25,0
1696,0.96,0.04,0.24,0
1697,0.96,0.03,0.24,0
1698,0.96,0.04,0.25,0
1699,0.96,0.04,0.25,0
1700,0.96,0.04,0.25,0
1701,0.95,0.04,0.25,0
1702,0.96,0.04,0.24,0
1703,0.96,0.05,0.25,0
1704,0.96,0.04,0.24,0
1705,0.96,0.06,0.25,0
1706,0.96,0.04,0.27,0
1707,0.96,0.05,0.26,0
1708,0.96,0.04,0.26,0
1709,0.96,0.05,0.26,0
1710,0.96,0.05,0.24,0
1711,0.95,0.05,0.27,0
1712,0.96,0.05,0.27,0
1713,0.96,0.06,0.32,0
1714,0.95,0.05,0.29,0
1715,0.96,0.05,0.28,0
1716,0.96,0.07,0.32,0
1717,0.95,0.03,0.26,0
1718,0.96,0.06,0.22,0
1719,0.95,0.06,0.26,0
1720,0.96,0.05,0.28,0
1721,1.0,0.03,0.27,0
1722,0.98,0.04,0.32,0
1723,1.04,0.09,0.44,0
1724,1.09,0.19,0.61,0
1725,1.21,0.27,0.87,3
1726,1.12,0.45,1.0,3
1727,1.76,0.52,1.23,3
1728,1.49,0.78,0.71,3
1729,1.09,0.92,0.28,3
1730,1.08,0.99,-0.33,3
1731,0.73,0.72,-0.71,3
1732,-0.27,0.27,-1.29,3
1733,-0.19,-0.27,-1.07,3
1734,-0.58,-0.33,-1.42,3
1735,-0.49,-0.52,-1.39,3
1736,0.0,-0.82,-0.69,3
1737,-0.1,-1.13,-0.79,3
1738,0.11,-1.18,-0.88,3
1739,0.22,-1.12,-1.0,3
1740,0.44,-1.02,-0.81,3
1741,0.48,-0.95,-0.65,3
1742,0.37,-0.87,-0.72,3
1743,0.21,-0.95,-0.84,3
1744,0.2,-1.0,-0.93,3
1745,0.03,-1.01,-1.17,3
1746,-0.15,-0.99,-1.39,3
1747,-0.22,-0.65,-1.41,3
1748,-0.09,-0.23,-1.32,3
1749,0.12,0.49,-1.28,3
1750,0.56,1.46,-1.16,3
1751,0.75,1.87,-0.64,3
1752,0.93,1.76,0.55,3
1753,1.16,1.42,1.56,3
1754,1.08,1.05,2.02,3
1755,1.34,0.44,1.64,3
1756,1.14,0.28,1.01,3
1757,0.9,0.24,0.82,3
1758,0.83,0.36,1.13,3
1759,1.02,0.45,1.36,3
1760,1.41,0.65,1.45,3
1761,1.62,0.76,1.37,3
1762,1.69,0.91,1.13,3
1763,1.31,1.17,0.22,3
1764,1.01,1.42,-0.32,3
1765,0.48,1.59,-0.92,3
1766,-0.7,0.54,-1.92,3
1767,-0.87,-0.47,-1.69,3
1768,-0.66,-0.77,-1.34,3
1769,-0.14,-1.18,-0.52,3
1770,-0.23,-1.51,-0.81,3
1771,-0.29,-1.36,-1.22,3
1772,-0.39,-1.08,-1.39,3
1773,-0.14,-0.64,-1.15,3
1774,0.13,-0.28,-0.98,3
1775,0.44,0.17,-0.72,3
1776,0.68,0.56,-0.53,3
1777,0.96,0.89,-0.1,3
1778,1.46,0.75,1.06,3
1779,0.98,0.47,1.28,3
1780,1.42,0.37,1.54,3
1781,1.01,0.3,1.16,3
1782,1.02,0.08,0.89,3
1783,0.95,-0.03,0.52,3
1784,0.69,-0.05,0.38,3
1785,0.86,0.03,0.37,3
1786,0.98,-0.04,0.52,3
1787,0.9,-0.07,0.54,3
1788,0.95,-0.06,0.48,3
1789,0.84,0.06,0.38,3
1790,0.91,0.01,0.48,3
1791,0.95,-0.01,0.46,3
1792,0.82,0.0,0.43,3
1793,0.96,-0.01,0.44,3
1794,0.88,0.0,0.42,3
1795,0.92,0.01,0.44,3
1796,0.89,0.03,0.41,3
1797,0.92,0.01,0.44,3
1798,0.93,0.0,0.45,3
1799,0.93,0.02,0.43,3
1800,0.9,-0.01,0.42,3
1801,0.89,0.03,0.46,3
1802,0.92,0.03,0.47,3
1803,0.83,0.05,0.38,3
1804,0.86,0.03,0.41,3
1805,0.92,0.03,0.47,3
1806,0.92,0.05,0.48,3
1807,0.89,0.02,0.47,3
1808,0.91,0.01,0.38,3
1809,0.92,0.04,0.38,3
1810,0.91,0.02,0.47,3
1811,0.87,0.0,0.45,3
1812,0.87,0.03,0.46,3
1813,0.88,0.05,0.48,3
1814,0.91,0.07,0.48,3
1815,0.89,0.02,0.45,3
1816,0.98,0.04,0.33,3
1817,0.93,0.01,0.38,3
1818,0.92,-0.01,0.42,3
1819,0.9,0.02,0.43,3
1820,0.88,0.03,0.44,3
1821,0.93,0.01,0.44,3
1822,0.92,0.02,0.42,3
1823,0.91,0.01,0.43,3
1824,0.9,0.01,0.42,3
1825,0.9,0.01,0.43,0
1826,0.91,0.02,0.44,0
1827,0.9,0.01,0.43,0
1828,0.91,0.0,0.41,0
1829,0.91,0.0,0.42,0
1830,0.91,0.01,0.43,0
1831,0.9,0.01,0.42,0
1832,0.91,0.01,0.43,0
1833,0.92,0.0,0.43,0
1834,0.91,0.01,0.43,0
1835,0.91,0.0,0.43,0
1836,0.92,0.01,0.43,0
1837,0.9,0.01,0.44,0
1838,0.91,0.01,0.43,0
1839,0.91,0.01,0.43,0
1840,0.9,0.01,0.43,0
1841,0.9,0.0,0.43,0
1842,0.91,0.0,0.43,0
1843,0.9,0.01,0.44,0
1844,0.92,0.0,0.43,0
1845,0.9,0.01,0.43,0
1846,0.9,0.01,0.42,0
1847,0.91,0.01,0.44,0
1848,0.91,0.01,0.43,0
1849,0.91,0.01,0.45,0
1850,0.92,0.0,0.43,0
1851,0.89,0.01,0.43,0
1852,0.92,0.01,0.45,0
1853,0.91,0.02,0.44,0
1854,0.9,0.01,0.44,0
1855,0.9,0.01,0.45,0
1856,0.87,0.01,0.45,0
1857,0.9,0.02,0.46,0
1858,0.89,0.02,0.46,0
1859,0.88,0.01,0.45,0
1860,0.9,0.02,0.46,0
1861,0.9,0.02,0.47,0
1862,0.88,0.02,0.46,0
1863,0.87,0.02,0.46,0
1864,0.89,0.03,0.46,0
1865,0.87,0.02,0.47,0
1866,0.87,0.02,0.47,0
1867,0.89,0.02,0.47,0
1868,0.87,0.03,0.47,0
1869,0.87,0.02,0.47,0
1870,0.88,0.02,0.47,0
1871,0.88,0.02,0.47,0
1872,0.87,0.02,0.47,0
1873,0.87,0.03,0.47,0
1874,0.87,0.02,0.47,0
1875,0.88,0.03,0.47,0
1876,0.87,0.02,0.47,0
1877,0.87,0.02,0.47,0
1878,0.88,0.02,0.47,0
1879,0.87,0.02,0.46,0
1880,0.87,0.03,0.47,0
1881,0.86,0.03,0.46,0
1882,0.88,0.03,0.47,0
1883,0.86,0.02,0.47,0
1884,0.88,0.03,0.47,0
1885,0.88,0.03,0.47,0
1886,0.88,0.02,0.47,0
1887,0.88,0.02,0.47,0
1888,0.88,0.02,0.47,0
1889,0.88,0.03,0.47,0
1890,0.88,0.03,0.47,0
1891,0.88,0.02,0.47,0
1892,0.88,0.02,0.47,0
1893,0.88,0.02,0.47,0
1894,0.87,0.02,0.47,0
1895,0.88,0.02,0.47,0
1896,0.87,0.02,0.47,0
1897,0.87,0.02,0.47,0
1898,0.87,0.02,0.47,0
1899,0.89,0.02,0.47,0
1900,0.88,0.02,0.47,0
1901,0.87,0.02,0.47,0
1902,0.88,0.02,0.47,0
1903,0.88,0.03,0.47,0
1904,0.88,0.02,0.47,0
1905,0.89,0.02,0.47,0
1906,0.88,0.03,0.47,0
1907,0.87,0.03,0.47,0
1908,0.88,0.02,0.47,0
1909,0.87,0.02,0.47,0
1910,0.88,0.02,0.47,0
1911,0.89,0.02,0.47,0
1912,0.87,0.02,0.47,0
1913,0.87,0.02,0.47,0
1914,0.88,0.02,0.47,0
1915,0.88,0.02,0.47,0
1916,0.88,0.03,0.47,0
1917,0.87,0.03,0.47,0
1918,0.88,0.03,0.47,0
1919,0.88,0.03,0.47,0
1920,0.87,0.02,0.47,0
1921,0.87,0.02,0.47,0
1922,0.89,0.02,0.47,0
1923,0.88,0.02,0.47,0
1924,0.87,0.02,0.47,0
1925,0.88,0.03,0.47,0
1926,0.89,0.03,0.47,0
1927,0.88,0.02,0.47,0
1928,0.87,0.02,0.47,0
1929,0.88,0.02,0.47,0
1930,0.87,0.03,0.47,0
1931,0.87,0.02,0.47,0
1932,0.88,0.02,0.47,0
1933,0.87,0.02,0.47,0
1934,0.87,0.02,0.47,0
1935,0.87,0.02,0.47,0
1936,0.88,0.02,0.47,0
1937,0.88,0.02,0.47,0
1938,0.87,0.02,0.47,0
1939,0.87,0.02,0.47,0
1940,0.88,0.02,0.47,0
1941,0.87,0.01,0.47,0
1942,0.87,0.03,0.47,0
1943,0.87,0.02,0.48,0
1944,0.87,0.03,0.47,0
1945,0.87,0.02,0.47,0
1946,0.86,0.03,0.47,0
1947,0.89,0.0,0.48,0
1948,0.86,0.04,0.48,0
1949,0.87,0.02,0.48,0
1950,0.86,0.04,0.48,0
1951,0.86,0.02,0.5,0
1952,0.86,0.03,0.49,0
1953,0.86,0.04,0.49,0
1954,0.85,0.06,0.51,0
1955,0.86,0.0,0.49,0
1956,0.87,0.04,0.46,0
1957,0.89,0.03,0.47,0
1958,0.88,0.02,0.48,0
1959,0.86,0.03,0.47,0
1960,0.88,0.03,0.47,0
1961,0.87,0.02,0.47,0
1962,0.88,0.02,0.46,0
1963,0.87,0.04,0.47,0
1964,0.94,0.06,0.45,0
1965,0.86,0.02,0.45,0
1966,0.88,0.03,0.46,0
1967,0.88,0.03,0.46,0
1968,0.89,0.02,0.46,0
1969,0.9,0.02,0.46,0
1970,0.88,0.03,0.46,0
1971,0.9,0.03,0.46,0
1972,0.88,0.03,0.45,0
1973,0.89,0.03,0.45,0
1974,0.88,0.04,0.45,0
1975,0.9,0.03,0.44,3
1976,0.89,0.03,0.44,3
1977,0.88,0.05,0.43,3
1978,0.89,0.05,0.45,3
1979,0.92,0.05,0.46,3
1980,0.94,0.02,0.45,3
1981,0.88,0.01,0.43,3
1982,0.91,0.01,0.44,3
1983,0.9,0.01,0.44,3
1984,0.9,0.03,0.45,3
1985,0.89,0.05,0.45,3
1986,0.91,0.05,0.43,3
1987,0.9,0.04,0.43,3
1988,0.91,0.03,0.42,3
1989,0.92,0.01,0.43,3
1990,0.9,0.03,0.43,3
1991,0.91,0.03,0.44,3
1992,0.9,0.05,0.43,3
1993,0.9,0.05,0.43,3
1994,0.91,0.03,0.42,3
1995,0.91,0.02,0.42,3
1996,0.92,0.02,0.43,3
1997,0.9,0.04,0.44,3
1998,0.89,0.1,0.46,3
1999,0.86,0.19,0.48,3
2000,0.87,0.21,0.48,3
2001,0.88,0.21,0.47,3
2002,0.93,0.11,0.48,3
2003,0.9,0.15,0.52,3
2004,0.87,0.2,0.55,3
2005,0.88,0.18,0.51,3
2006,0.97,0.13,0.48,3
2007,0.92,0.08,0.48,3
2008,0.8,0.12,0.59,3
2009,0.78,0.17,0.77,3
2010,0.81,0.16,0.93,3
2011,0.85,0.13,1.05,3
2012,0.64,0.11,1.03,3
2013,0.81,0.1,0.98,3
2014,0.82,-0.02,0.94,3
2015,0.41,-0.12,0.84,3
2016,0.54,-0.15,0.81,3
2017,0.6,-0.17,0.78,3
2018,0.46,-0.2,0.64,3
2019,0.56,-0.24,0.58,3
2020,0.55,-0.21,0.57,3
2021,0.47,-0.23,0.5,3
2022,0.51,-0.13,0.59,3
2023,0.51,-0.14,0.62,3
2024,0.52,-0.22,0.64,3
2025,0.6,-0.23,0.67,3
2026,0.67,-0.31,0.73,3
2027,0.54,-0.23,0.73,3
2028,0.57,-0.3,0.77,3
2029,0.58,-0.29,0.8,3
2030,0.44,-0.27,0.77,3
2031,0.56,-0.31,0.8,3
2032,0.51,-0.29,0.78,3
2033,0.54,-0.32,0.8,3
2034,0.59,-0.33,0.78,3
2035,0.53,-0.31,0.7,3
2036,0.63,-0.35,0.67,3
2037,0.64,-0.29,0.58,3
2038,0.53,-0.23,0.47,3
2039,0.68,-0.22,0.51,3
2040,0.57,-0.13,0.51,3
2041,0.66,-0.13,0.65,3
2042,0.6,-0.11,0.75,3
2043,0.54,-0.06,0.85,3
2044,0.59,-0.07,0.96,3
2045,0.51,-0.02,1.02,3
2046,0.55,-0.01,1.19,3
2047,0.36,0.03,1.19,3
2048,0.45,0.02,1.22,3
2049,0.35,0.07,1.14,3
2050,0.42,0.07,1.08,3
2051,0.42,0.07,0.96,3
2052,0.44,0.06,0.88,3
2053,0.46,0.04,0.81,3
2054,0.46,0.03,0.76,3
2055,0.47,0.01,0.76,3
2056,0.52,0.06,0.74,3
2057,0.52,0.13,0.68,3
2058,0.59,0.15,0.62,3
2059,0.65,0.13,0.61,3
2060,0.67,0.16,0.58,3
2061,0.73,0.17,0.64,3
2062,0.6,0.14,0.68,3
2063,0.71,0.1,0.8,3
2064,0.71,0.07,0.86,3
2065,0.66,0.01,0.87,3
2066,0.85,-0.03,0.94,3
2067,0.73,-0.08,0.82,3
2068,0.9,-0.13,0.87,3
2069,0.86,-0.12,0.77,3
2070,0.76,-0.09,0.69,3
2071,0.88,-0.03,0.61,3
2072,0.85,-0.02,0.54,3
2073,0.88,-0.04,0.45,3
2074,0.91,-0.1,0.43,3
2075,0.91,-0.13,0.45,3
2076,0.92,-0.08,0.49,3
2077,0.88,0.02,0.59,3
2078,0.81,0.16,0.67,3
2079,0.8,0.24,0.71,3
2080,0.8,0.27,0.65,3
2081,0.77,0.25,0.58,3
2082,0.88,0.19,0.53,3
2083,0.85,0.11,0.47,3
2084,0.86,0.1,0.49,3
2085,0.86,0.05,0.49,3
2086,0.93,0.05,0.55,3
2087,0.78,0.01,0.52,3
2088,0.89,0.05,0.47,3
2089,0.87,0.01,0.49,3
2090,0.87,0.0,0.47,3
2091,0.87,-0.02,0.48,3
2092,0.85,0.0,0.47,3
2093,0.89,0.0,0.48,3
2094,0.91,0.0,0.49,3
2095,0.86,0.02,0.48,3
2096,0.88,0.02,0.47,3
2097,0.9,0.02,0.49,3
2098,0.86,0.01,0.51,3
2099,0.84,0.01,0.51,3
2100,0.76,0.03,0.52,3
2101,0.77,0.01,0.52,3
2102,0.89,0.01,0.53,3
2103,0.86,0.0,0.54,3
2104,0.86,0.01,0.58,3
2105,0.86,0.02,0.6,3
2106,0.85,-0.01,0.56,3
2107,0.85,0.02,0.44,3
2108,0.85,0.01,0.49,3
2109,0.84,0.0,0.51,3
2110,0.86,0.04,0.59,3
2111,0.78,0.06,0.59,3
2112,0.84,0.01,0.57,3
2113,0.87,0.01,0.49,3
2114,0.85,0.03,0.47,3
2115,0.86,0.01,0.49,3
2116,0.85,0.02,0.48,3
2117,0.87,0.05,0.47,3
2118,0.87,0.0,0.48,3
2119,0.87,0.01,0.48,3
2120,0.89,0.02,0.48,3
2121,0.87,0.02,0.48,3
2122,0.87,0.01,0.48,3
2123,0.86,0.01,0.48,3
2124,0.87,0.03,0.48,3
2125,0.86,0.02,0.48,0
2126,0.86,0.01,0.48,0
2127,0.86,0.01,0.48,0
2128,0.87,0.01,0.47,0
2129,0.87,0.0,0.48,0
2130,0.87,0.01,0.48,0
2131,0.87,0.01,0.48,0
2132,0.87,0.01,0.48,0
2133,0.87,0.01,0.48,0
2134,0.87,0.01,0.47,0
2135,0.88,0.01,0.48,0
2136,0.87,0.01,0.48,0
2137,0.87,0.01,0.48,0
2138,0.87,0.01,0.48,0
2139,0.87,0.01,0.48,0
2140,0.88,0.01,0.48,0
2141,0.87,0.01,0.48,0
2142,0.86,0.01,0.48,0
2143,0.87,0.01,0.48,0
2144,0.86,0.01,0.47,0
2145,0.87,0.01,0.48,0
2146,0.87,0.01,0.48,0
2147,0.87,0.01,0.48,0
2148,0.87,0.01,0.48,0
2149,0.87,0.01,0.48,0
2150,0.86,0.01,0.48,0
2151,0.86,0.01,0.48,0
2152,0.87,0.01,0.47,0
2153,0.86,0.01,0.48,0
2154,0.87,0.01,0.48,0
2155,0.86,0.02,0.48,0
2156,0.86,0.01,0.49,0
2157,0.86,0.0,0.49,0
2158,0.86,0.02,0.5,0
2159,0.86,0.02,0.49,0
2160,0.86,0.02,0.49,0
2161,0.85,0.01,0.49,0
2162,0.85,0.02,0.5,0
2163,0.86,0.02,0.5,0
2164,0.86,0.01,0.51,0
2165,0.86,0.01,0.5,0
2166,0.86,0.02,0.51,0
2167,0.86,0.02,0.5,0
2168,0.85,0.02,0.5,0
2169,0.86,0.02,0.5,0
2170,0.85,0.02,0.5,0
2171,0.86,0.02,0.51,0
2172,0.86,0.02,0.52,0
2173,0.86,0.01,0.52,0
2174,0.86,0.01,0.51,0
2175,0.86,0.01,0.51,0
2176,0.86,0.02,0.51,0
2177,0.86,0.02,0.51,0
2178,0.85,0.02,0.51,0
2179,0.85,0.02,0.51,0
2180,0.85,0.01,0.51,0
2181,0.85,0.01,0.51,0
2182,0.86,0.02,0.51,0
2183,0.86,0.01,0.52,0
2184,0.86,0.01,0.5,0
2185,0.85,0.02,0.52,0
2186,0.85,0.01,0.51,0
2187,0.85,0.02,0.51,0
2188,0.85,0.02,0.51,0
2189,0.86,0.01,0.52,0
2190,0.85,0.01,0.52,0
2191,0.86,0.01,0.52,0
2192,0.85,0.01,0.52,0
2193,0.85,0.01,0.52,0
2194,0.85,0.01,0.52,0
2195,0.85,0.01,0.52,0
2196,0.85,0.01,0.52,0
2197,0.85,0.01,0.52,0
2198,0.85,0.01,0.53,0
2199,0.85,0.01,0.53,0
2200,0.85,0.02,0.52,0
2201,0.85,0.01,0.52,0
2202,0.85,0.01,0.53,0
2203,0.85,0.01,0.52,0
2204,0.84,0.02,0.53,0
2205,0.85,0.01,0.53,0
2206,0.85,0.03,0.53,0
2207,0.85,0.01,0.55,0
2208,0.83,0.01,0.53,0
2209,0.85,0.03,0.53,0
2210,0.8,0.02,0.56,0
2211,0.85,0.02,0.55,0
2212,0.85,0.03,0.55,0
2213,0.82,0.01,0.57,0
2214,0.85,0.02,0.55,0
2215,0.84,0.0,0.56,0
2216,0.82,0.0,0.56,0
2217,0.86,0.04,0.54,0
2218,0.85,0.03,0.53,0
2219,0.85,0.02,0.51,0
2220,0.85,0.01,0.52,0
2221,0.84,0.02,0.53,0
2222,0.85,0.02,0.52,0
2223,0.85,0.02,0.53,0
2224,0.85,0.02,0.54,0
2225,0.85,0.02,0.52,3
2226,0.85,0.02,0.52,3
2227,0.85,0.02,0.52,3
2228,0.85,0.03,0.5,3
2229,0.85,0.06,0.52,3
2230,0.86,0.0,0.52,3
2231,0.86,0.01,0.51,3
2232,0.85,0.02,0.52,3
2233,0.86,0.02,0.52,3
2234,0.85,0.03,0.52,3
2235,0.85,0.02,0.5,3
2236,0.85,0.02,0.51,3
2237,0.85,0.02,0.52,3
2238,0.85,0.02,0.51,3
2239,0.85,0.02,0.51,3
2240,0.85,0.02,0.51,3
2241,0.85,0.01,0.51,3
2242,0.85,0.02,0.51,3
2243,0.85,0.03,0.51,3
2244,0.85,0.03,0.56,3
2245,0.85,0.05,0.63,3
2246,0.75,0.04,0.74,3
2247,0.72,0.08,0.96,3
2248,0.64,0.04,1.02,3
2249,0.76,0.04,1.04,3
2250,0.91,0.0,0.95,3
2251,0.71,-0.04,0.73,3
2252,0.73,0.04,0.56,3
2253,0.76,0.11,0.33,3
2254,0.84,0.25,0.25,3
2255,1.04,0.28,0.26,3
2256,0.75,0.3,0.27,3
2257,0.9,0.4,0.32,3
2258,0.83,0.43,0.21,3
2259,1.01,0.46,0.11,3
2260,1.05,0.48,-0.09,3
2261,1.22,0.52,-0.12,3
2262,1.02,0.5,-0.01,3
2263,0.96,0.41,0.39,3
2264,0.76,0.3,0.77,3
2265,0.57,0.19,1.33,3
2266,0.6,0.21,1.63,3
2267,0.68,0.15,1.77,3
2268,0.93,0.04,1.52,3
2269,0.83,0.0,1.11,3
2270,0.92,0.08,1.08,3
2271,0.85,0.21,0.93,3
2272,1.04,0.43,0.68,3
2273,1.03,0.48,0.34,3
2274,1.18,0.57,0.09,3
2275,0.6,0.49,-0.01,3
2276,1.01,0.56,-0.01,3
2277,0.78,0.38,0.05,3
2278,0.87,0.37,-0.02,3
2279,0.96,0.35,-0.08,3
2280,1.06,0.52,-0.27,3
2281,1.08,0.73,-0.42,3
2282,1.07,0.6,-0.21,3
2283,0.81,0.45,0.42,3
2284,0.58,0.33,1.14,3
2285,0.83,0.28,1.73,3
2286,0.96,0.2,1.65,3
2287,1.09,0.14,1.59,3
2288,0.92,0.08,1.2,3
2289,1.2,0.02,1.09,3
2290,0.9,-0.02,0.97,3
2291,0.91,0.16,0.94,3
2292,1.0,0.39,0.6,3
2293,1.33,0.54,0.28,3
2294,0.77,0.52,0.06,3
2295,0.87,0.66,-0.08,3
2296,0.93,0.65,-0.01,3
2297,0.79,0.48,-0.19,3
2298,0.92,0.48,-0.23,3
2299,1.05,0.51,-0.26,3
2300,0.94,0.46,-0.1,3
2301,0.79,0.35,0.23,3
2302,0.85,0.18,0.75,3
2303,0.7,0.1,1.09,3
2304,0.4,0.06,1.21,3
2305,0.71,0.02,1.21,3
2306,0.93,0.03,1.08,3
2307,0.78,0.03,0.77,3
2308,0.99,0.1,0.66,3
2309,0.96,0.02,0.5,3
2310,0.8,0.0,0.46,3
2311,0.93,0.01,0.45,3
2312,0.84,-0.01,0.45,3
2313,0.86,0.02,0.47,3
2314,0.95,0.01,0.46,3
2315,0.86,0.03,0.47,3
2316,0.94,0.02,0.47,3
2317,0.91,0.03,0.47,3
2318,0.89,0.01,0.46,3
2319,0.9,0.03,0.48,3
2320,0.85,0.03,0.5,3
2321,0.84,0.02,0.53,3
2322,0.81,0.01,0.48,3
2323,0.8,0.02,0.51,3
2324,0.9,0.0,0.51,3
2325,0.93,0.03,0.47,3
2326,0.87,0.03,0.47,3
2327,0.83,0.0,0.49,3
2328,0.87,0.0,0.47,3
2329,0.87,0.08,0.48,3
2330,0.83,0.04,0.56,3
2331,0.85,0.02,0.54,3
2332,0.85,-0.01,0.49,3
2333,0.82,0.0,0.49,3
2334,0.9,0.03,0.48,3
2335,0.86,0.02,0.48,3
2336,0.85,0.02,0.47,3
2337,0.88,0.02,0.47,3
2338,0.89,0.01,0.47,3
2339,0.9,0.01,0.48,3
2340,0.87,0.01,0.48,3
2341,0.89,0.01,0.47,3
2342,0.88,0.01,0.47,3
2343,0.89,0.01,0.47,3
2344,0.88,0.01,0.47,3
2345,0.87,0.01,0.47,3
2346,0.87,0.01,0.46,3
2347,0.9,0.01,0.46,3
2348,0.88,0.02,0.46,3
2349,0.88,0.01,0.46,3
2350,0.87,0.01,0.45,0
2351,0.87,0.01,0.46,0
2352,0.89,0.01,0.47,0
2353,0.89,0.01,0.47,0
2354,0.88,0.01,0.47,0
2355,0.89,0.01,0.47,0
2356,0.88,0.01,0.47,0
2357,0.88,0.01,0.47,0
2358,0.87,0.01,0.46,0
2359,0.87,0.02,0.47,0
2360,0.88,0.01,0.47,0
2361,0.89,0.01,0.47,0
2362,0.88,0.01,0.47,0
2363,0.88,0.01,0.47,0
2364,0.89,0.01,0.47,0
2365,0.88,0.01,0.46,0
2366,0.89,0.01,0.46,0
2367,0.88,0.01,0.47,0
2368,0.88,0.01,0.46,0
2369,0.88,0.01,0.46,0
2370,0.88,0.02,0.47,0
2371,0.89,0.01,0.47,0
2372,0.88,0.01,0.47,0
2373,0.87,0.01,0.47,0
2374,0.9,0.02,0.47,0
2375,0.89,0.01,0.47,0
2376,0.87,0.01,0.47,0
2377,0.88,0.0,0.47,0
2378,0.89,0.01,0.47,0
2379,0.9,0.0,0.48,0
2380,0.86,0.02,0.48,0
2381,0.86,0.02,0.47,0
2382,0.85,0.02,0.48,0
2383,0.86,0.01,0.49,0
2384,0.87,0.0,0.54,0
2385,0.86,0.02,0.49,0
2386,0.84,0.01,0.49,0
2387,0.87,-0.01,0.5,0
2388,0.92,0.02,0.5,0
2389,0.85,0.02,0.55,0
2390,0.86,0.03,0.51,0
2391,0.82,0.02,0.48,0
2392,0.85,0.01,0.52,0
2393,0.89,0.01,0.45,0
2394,0.89,0.0,0.45,0
2395,0.86,-0.01,0.48,0
2396,0.92,-0.03,0.48,0
2397,0.9,-0.02,0.47,0
2398,0.87,-0.01,0.47,0
2399,0.89,0.0,0.47,0
2400,0.88,0.0,0.47,3
2401,0.89,0.0,0.47,3
2402,0.89,0.0,0.47,3
2403,0.87,0.0,0.46,3
2404,0.88,-0.01,0.46,3
2405,0.88,0.0,0.47,3
2406,0.88,-0.01,0.46,3
2407,0.89,-0.01,0.46,3
2408,0.88,-0.01,0.46,3
2409,0.87,-0.02,0.46,3
2410,0.87,-0.02,0.46,3
2411,0.87,-0.01,0.47,3
2412,0.87,-0.02,0.47,3
2413,0.88,-0.02,0.47,3
2414,0.9,-0.03,0.46,3
2415,0.91,-0.02,0.48,3
2416,0.87,-0.01,0.54,3
2417,0.84,0.01,0.61,3
2418,0.6,0.04,0.73,3
2419,0.8,0.18,0.77,3
2420,1.05,0.29,0.81,3
2421,0.74,0.37,0.77,3
2422,0.89,0.49,0.62,3
2423,0.96,0.48,0.46,3
2424,0.96,0.46,0.28,3
2425,1.03,0.36,0.18,3
2426,1.0,0.3,0.14,3
2427,0.93,0.32,-0.18,3
2428,1.09,0.35,-0.28,3
2429,0.85,0.31,-0.59,3
2430,0.95,0.16,-0.72,3
2431,0.95,0.08,-0.81,3
2432,0.87,0.01,-0.85,3
2433,0.94,-0.06,-0.83,3
2434,0.91,-0.14,-0.8,3
2435,0.91,-0.24,-0.79,3
2436,0.95,-0.29,-0.77,3
2437,1.0,-0.25,-0.8,3
2438,1.04,-0.2,-0.83,3
2439,1.01,-0.12,-0.83,3
2440,0.98,-0.04,-0.77,3
2441,0.91,0.07,-0.72,3
2442,0.93,0.17,-0.6,3
2443,0.87,0.26,-0.55,3
2444,0.96,0.46,-0.55,3
2445,0.96,0.63,-0.42,3
2446,0.92,0.72,-0.27,3
2447,1.1,0.71,-0.02,3
2448,0.94,0.65,0.01,3
2449,1.07,0.6,0.2,3
2450,1.01,0.55,0.19,3
2451,0.98,0.52,0.33,3
2452,1.07,0.49,0.51,3
2453,1.15,0.48,0.69,3
2454,1.22,0.47,0.73,3
2455,1.25,0.49,0.64,3
2456,1.23,0.59,0.58,3
2457,1.15,0.75,0.44,3
2458,1.05,0.85,0.19,3
2459,1.06,0.87,-0.06,3
2460,0.93,0.74,-0.29,3
2461,0.83,0.5,-0.3,3
2462,0.92,0.46,-0.56,3
2463,0.83,0.43,-0.63,3
2464,0.83,0.35,-0.85,3
2465,0.62,0.19,-0.99,3
2466,0.61,0.09,-0.96,3
2467,0.65,-0.1,-1.14,3
2468,0.74,-0.27,-1.14,3
2469,0.84,-0.48,-1.11,3
2470,0.96,-0.47,-1.15,3
2471,0.97,-0.37,-1.05,3
2472,0.96,-0.22,-1.0,3
2473,0.93,-0.06,-0.83,3
2474,0.9,0.03,-0.71,3
2475,0.92,0.22,-0.65,3
2476,0.88,0.36,-0.47,3
2477,0.87,0.47,-0.41,3
2478,0.92,0.63,-0.1,3
2479,0.95,0.62,0.12,3
2480,1.09,0.57,0.42,3
2481,0.95,0.41,0.25,3
2482,0.98,0.5,0.55,3
2483,1.04,0.39,0.57,3
2484,1.01,0.26,0.52,3
2485,0.95,0.25,0.47,3
2486,0.97,0.12,0.45,3
2487,1.03,0.05,0.32,3
2488,1.03,0.02,0.23,3
2489,0.97,0.0,0.18,3
2490,0.98,-0.01,0.11,3
2491,0.96,0.0,0.11,3
2492,0.92,0.05,0.1,3
2493,0.98,0.05,0.13,3
2494,0.99,0.04,0.15,3
2495,0.96,0.05,0.16,3
2496,0.99,0.05,0.17,3
2497,0.97,0.04,0.16,3
2498,0.97,0.04,0.18,3
2499,0.98,0.03,0.18,3
2500,0.96,0.04,0.19,3
2501,0.98,0.04,0.19,3
2502,0.97,0.05,0.2,3
2503,0.99,0.03,0.19,3
2504,0.96,0.07,0.22,3
2505,0.96,0.06,0.22,3
2506,0.95,0.1,0.23,3
2507,0.94,0.05,0.22,3
2508,0.96,0.06,0.24,3
2509,0.96,0.08,0.27,3
2510,0.96,0.09,0.27,3
2511,0.95,0.08,0.3,3
2512,0.96,0.01,0.27,3
2513,0.95,0.02,0.23,3
2514,0.96,0.11,0.16,3
2515,0.94,0.05,0.28,3
2516,0.95,0.04,0.28,3
2517,0.94,0.08,0.33,3
2518,0.95,0.11,0.35,3
2519,0.99,0.0,0.32,3
2520,0.96,0.05,0.24,3
2521,0.91,0.24,0.18,3
2522,0.96,0.08,0.21,3
2523,0.94,0.03,0.22,3
2524,0.95,0.06,0.21,3
2525,0.95,0.06,0.21,0
2526,0.92,0.09,0.21,0
2527,0.94,0.11,0.27,0
2528,0.97,0.1,0.3,0
2529,0.98,0.08,0.31,0
2530,0.96,0.05,0.27,0
2531,0.97,0.04,0.26,0
2532,0.97,0.05,0.24,0
2533,0.96,0.07,0.22,0
2534,0.96,0.07,0.22,0
2535,0.96,0.07,0.22,0
2536,0.96,0.08,0.22,0
2537,0.96,0.07,0.22,0
2538,0.96,0.06,0.23,0
2539,0.96,0.05,0.23,0
2540,0.96,0.07,0.23,0
2541,0.96,0.06,0.22,0
2542,0.97,0.06,0.21,0
2543,0.97,0.05,0.22,0
2544,0.96,0.05,0.22,0
2545,0.96,0.05,0.22,0
2546,0.97,0.05,0.22,0
2547,0.96,0.05,0.22,0
2548,0.96,0.04,0.22,0
2549,0.96,0.04,0.22,0
2550,0.96,0.05,0.23,0
2551,0.96,0.08,0.23,0
2552,0.96,0.08,0.23,0
2553,0.96,0.08,0.23,0
2554,0.96,0.08,0.23,0
2555,0.96,0.08,0.24,0
2556,0.96,0.07,0.25,0
2557,0.96,0.08,0.25,0
2558,0.96,0.07,0.25,0
2559,0.96,0.06,0.24,0
2560,0.96,0.05,0.23,0
2561,0.95,0.05,0.24,0
2562,0.96,0.06,0.24,0
2563,0.96,0.06,0.25,0
2564,0.96,0.07,0.26,0
2565,0.96,0.06,0.26,0
2566,0.96,0.05,0.26,0
2567,0.96,0.06,0.27,0
2568,0.96,0.04,0.26,0
2569,0.96,0.05,0.26,0
2570,0.96,0.06,0.26,0
2571,0.96,0.06,0.27,0
2572,0.96,0.05,0.26,0
2573,0.95,0.07,0.27,0
2574,0.96,0.05,0.28,0
2575,0.96,0.06,0.3,0
2576,0.96,0.08,0.31,0
2577,0.95,0.05,0.31,0
2578,0.95,0.07,0.31,0
2579,0.93,0.1,0.35,0
2580,0.93,0.02,0.34,0
2581,0.92,0.1,0.34,0
2582,0.95,0.08,0.38,0
2583,0.92,0.09,0.38,0
2584,0.91,0.1,0.41,0
2585,0.88,0.1,0.45,0
2586,0.93,0.08,0.45,0
2587,0.87,0.08,0.3,0
2588,0.89,0.09,0.29,0
2589,0.95,0.07,0.34,0
2590,0.93,0.06,0.36,0
2591,0.92,0.07,0.36,0
2592,0.94,0.07,0.36,0
2593,0.94,0.09,0.35,0
2594,0.95,0.08,0.36,0
2595,0.95,0.08,0.35,0
2596,0.95,0.09,0.35,0
2597,0.95,0.08,0.35,0
2598,0.93,0.09,0.34,0
2599,0.93,0.09,0.34,0
2600,0.94,0.09,0.34,3
2601,0.94,0.09,0.33,3
2602,0.95,0.08,0.34,3
2603,0.94,0.09,0.34,3
2604,0.95,0.08,0.34,3
2605,0.94,0.08,0.35,3
2606,0.93,0.09,0.35,3
2607,0.94,0.09,0.34,3
2608,0.94,0.09,0.34,3
2609,0.94,0.09,0.33,3
2610,0.94,0.1,0.34,3
2611,0.93,0.09,0.35,3
2612,0.93,0.1,0.35,3
2613,0.94,0.1,0.35,3
2614,0.95,0.1,0.35,3
2615,0.92,0.09,0.35,3
2616,0.93,0.1,0.36,3
2617,0.93,0.1,0.42,3
2618,0.95,0.1,0.56,3
2619,0.95,0.12,0.89,3
2620,1.5,0.22,1.45,3
2621,1.27,0.38,1.53,3
2622,1.56,0.49,1.25,3
2623,1.91,0.51,1.22,3
2624,1.44,0.4,0.94,3
2625,0.97,0.3,0.97,3
2626,1.18,0.37,0.76,3
2627,0.73,0.53,0.39,3
2628,0.54,0.49,0.24,3
2629,0.31,0.37,-0.06,3
2630,-0.02,-0.12,-0.32,3
2631,0.05,-0.49,-0.34,3
2632,-0.19,-0.51,-0.22,3
2633,-0.46,-0.41,-0.1,3
2634,-0.24,-0.26,-0.03,3
2635,-0.29,-0.13,-0.01,3
2636,-0.17,0.07,-0.09,3
2637,0.13,0.1,-0.01,3
2638,0.42,-0.05,0.23,3
2639,0.59,0.28,0.8,3
2640,1.03,0.21,1.37,3
2641,1.03,0.35,1.79,3
2642,1.29,0.14,1.69,3
2643,1.4,0.2,1.59,3
2644,1.29,0.08,1.35,3
2645,0.97,0.11,1.11,3
2646,0.89,0.1,0.96,3
2647,0.72,0.11,0.73,3
2648,0.77,0.19,0.61,3
2649,0.73,0.23,0.54,3
2650,0.73,0.24,0.61,3
2651,0.73,0.25,0.61,3
2652,0.73,0.26,0.65,3
2653,0.76,0.25,0.63,3
2654,0.74,0.26,0.6,3
2655,0.75,0.24,0.61,3
2656,0.73,0.24,0.64,3
2657,0.76,0.26,0.82,3
2658,0.89,0.34,1.23,3
2659,0.98,0.47,1.5,3
2660,0.97,0.48,1.73,3
2661,1.4,0.68,2.34,3
2662,1.1,0.6,2.14,3
2663,1.09,0.62,1.74,3
2664,0.79,0.78,0.84,3
2665,0.66,0.87,0.24,3
2666,0.38,0.83,-0.31,3
2667,0.16,0.21,-0.51,3
2668,-0.15,-0.28,-0.56,3
2669,-0.4,-0.52,-0.53,3
2670,-0.5,-0.46,-0.38,3
2671,-0.61,-0.33,-0.26,3
2672,-0.66,-0.23,-0.24,3
2673,-0.52,0.01,-0.3,3
2674,-0.12,0.38,-0.28,3
2675,0.47,0.75,0.2,3
2676,0.85,0.78,1.07,3
2677,0.85,0.53,1.82,3
2678,0.98,0.63,2.11,3
2679,1.05,0.37,2.1,3
2680,1.15,0.47,1.98,3
2681,0.99,0.29,1.8,3
2682,0.7,0.22,1.42,3
2683,0.59,0.13,1.04,3
2684,0.48,0.17,0.82,3
2685,0.48,0.23,0.74,3
2686,0.52,0.27,0.59,3
2687,0.71,0.19,0.57,3
2688,0.93,0.03,0.47,3
2689,1.06,0.0,0.39,3
2690,0.97,-0.12,0.37,3
2691,1.03,0.07,0.41,3
2692,0.88,0.32,0.5,3
2693,0.77,0.57,0.66,3
2694,0.56,0.62,0.69,3
2695,0.57,0.64,0.73,3
2696,0.82,0.61,0.74,3
2697,0.64,0.74,0.71,3
2698,0.71,0.49,0.72,3
2699,0.73,0.37,0.67,3
2700,0.75,0.28,0.68,3
2701,0.79,0.23,0.65,3
2702,0.83,0.14,0.67,3
2703,0.77,0.15,0.62,3
2704,0.76,0.13,0.65,3
2705,0.78,0.13,0.63,3
2706,0.78,0.14,0.61,3
2707,0.78,0.15,0.6,3
2708,0.75,0.15,0.57,3
2709,0.77,0.12,0.59,3
2710,0.84,0.14,0.63,3
2711,0.77,0.14,0.61,3
2712,0.77,0.13,0.59,3
2713,0.76,0.13,0.58,3
2714,0.76,0.18,0.59,3
2715,0.85,0.12,0.6,3
2716,0.78,0.15,0.61,3
2717,0.76,0.14,0.59,3
2718,0.79,0.13,0.61,3
2719,0.74,0.14,0.63,3
2720,0.77,0.14,0.63,3
2721,0.74,0.12,0.61,3
2722,0.74,0.15,0.61,3
2723,0.76,0.14,0.64,3
2724,0.74,0.13,0.65,3
2725,0.73,0.12,0.65,3
2726,0.77,0.16,0.63,3
2727,0.82,0.12,0.59,3
2728,0.73,0.16,0.62,3
2729,0.75,0.12,0.66,3
2730,0.75,0.13,0.67,3
2731,0.76,0.09,0.67,3
2732,0.75,0.15,0.6,3
2733,0.78,0.17,0.59,3
2734,0.76,0.14,0.58,3
2735,0.76,0.16,0.62,3
2736,0.76,0.13,0.61,3
2737,0.78,0.14,0.6,3
2738,0.81,0.13,0.6,3
2739,0.78,0.14,0.6,3
2740,0.79,0.14,0.59,3
2741,0.78,0.14,0.59,3
2742,0.8,0.14,0.59,3
2743,0.78,0.14,0.59,3
2744,0.79,0.13,0.59,3
2745,0.79,0.14,0.6,3
2746,0.78,0.14,0.6,3
2747,0.79,0.13,0.59,3
2748,0.78,0.13,0.59,3
2749,0.79,0.13,0.59,3
2750,0.79,0.13,0.59,0
2751,0.78,0.13,0.58,0
2752,0.78,0.13,0.59,0
2753,0.78,0.12,0.59,0
2754,0.79,0.12,0.59,0
2755,0.8,0.12,0.59,0
2756,0.79,0.13,0.59,0
2757,0.78,0.13,0.59,0
2758,0.78,0.12,0.59,0
2759,0.79,0.12,0.59,0
2760,0.78,0.13,0.59,0
2761,0.78,0.12,0.59,0
2762,0.8,0.12,0.59,0
2763,0.79,0.12,0.59,0
2764,0.78,0.12,0.59,0
2765,0.78,0.12,0.58,0
2766,0.78,0.12,0.59,0
2767,0.8,0.12,0.59,0
2768,0.8,0.12,0.59,0
2769,0.81,0.12,0.59,0
2770,0.8,0.12,0.59,0
2771,0.79,0.12,0.59,0
2772,0.78,0.11,0.57,0
2773,0.8,0.12,0.57,0
2774,0.8,0.13,0.58,0
2775,0.8,0.13,0.58,0
2776,0.78,0.14,0.58,0
2777,0.79,0.14,0.58,0
2778,0.78,0.13,0.59,0
2779,0.79,0.14,0.59,0
2780,0.81,0.16,0.59,0
2781,0.84,0.09,0.59,0
2782,0.8,0.12,0.57,0
2783,0.79,0.12,0.57,0
2784,0.8,0.11,0.56,0
2785,0.8,0.12,0.57,0
2786,0.82,0.12,0.56,0
2787,0.8,0.12,0.57,0
2788,0.81,0.12,0.58,0
2789,0.81,0.11,0.57,0
2790,0.81,0.11,0.57,0
2791,0.8,0.12,0.57,0
2792,0.82,0.11,0.57,0
2793,0.82,0.11,0.56,0
2794,0.8,0.11,0.57,0
2795,0.82,0.11,0.56,0
2796,0.81,0.11,0.56,0
2797,0.82,0.11,0.56,0
2798,0.81,0.11,0.57,0
2799,0.83,0.11,0.56,0
2800,0.81,0.12,0.56,0
2801,0.82,0.11,0.55,0
2802,0.81,0.11,0.56,0
2803,0.83,0.11,0.56,0
2804,0.81,0.11,0.56,0
2805,0.82,0.11,0.56,0
2806,0.82,0.11,0.57,0
2807,0.82,0.11,0.57,0
2808,0.82,0.11,0.56,0
2809,0.82,0.11,0.56,0
2810,0.82,0.12,0.56,0
2811,0.81,0.11,0.56,0
2812,0.81,0.11,0.56,0
2813,0.82,0.11,0.56,0
2814,0.82,0.11,0.57,0
2815,0.81,0.11,0.57,0
2816,0.82,0.11,0.57,0
2817,0.81,0.11,0.57,0
2818,0.81,0.12,0.6,0
2819,0.81,0.11,0.59,0
2820,0.78,0.11,0.58,0
2821,0.79,0.11,0.6,0
2822,0.79,0.11,0.59,0
2823,0.79,0.11,0.58,0
2824,0.79,0.11,0.59,0
2825,0.8,0.11,0.59,0
2826,0.79,0.11,0.59,0
2827,0.79,0.11,0.59,0
2828,0.8,0.11,0.59,0
2829,0.8,0.11,0.58,0
2830,0.79,0.11,0.59,0
2831,0.79,0.11,0.57,0
2832,0.78,0.11,0.57,0
2833,0.8,0.11,0.59,0
2834,0.81,0.11,0.58,0
2835,0.8,0.11,0.59,0
2836,0.8,0.11,0.6,0
2837,0.79,0.11,0.57,0
2838,0.76,0.12,0.59,0
2839,0.79,0.1,0.58,0
2840,0.77,0.11,0.6,0
2841,0.77,0.1,0.58,0
2842,0.81,0.11,0.6,0
2843,0.81,0.1,0.61,0
2844,0.8,0.1,0.65,0
2845,0.75,0.1,0.6,0
2846,0.8,0.11,0.58,0
2847,0.8,0.12,0.59,0
2848,0.78,0.11,0.59,0
2849,0.78,0.11,0.59,0
2850,0.83,0.08,0.56,0
2851,0.8,0.11,0.57,0
2852,0.78,0.11,0.59,0
2853,0.79,0.11,0.58,0
2854,0.8,0.11,0.58,0
2855,0.81,0.11,0.58,0
2856,0.8,0.11,0.59,0
2857,0.79,0.11,0.58,0
2858,0.81,0.11,0.58,0
2859,0.8,0.11,0.58,0
2860,0.8,0.11,0.58,0
2861,0.8,0.11,0.58,0
2862,0.81,0.11,0.58,0
2863,0.81,0.11,0.58,0
2864,0.79,0.11,0.58,0
2865,0.8,0.11,0.58,0
2866,0.79,0.11,0.57,0
2867,0.79,0.11,0.58,0
2868,0.8,0.11,0.58,0
2869,0.8,0.11,0.58,0
2870,0.81,0.11,0.58,0
2871,0.8,0.11,0.58,0
2872,0.79,0.11,0.58,0
2873,0.82,0.11,0.58,0
2874,0.8,0.11,0.57,0
2875,0.81,0.11,0.58,3
2876,0.8,0.11,0.58,3
2877,0.8,0.12,0.57,3
2878,0.81,0.11,0.58,3
2879,0.8,0.11,0.58,3
2880,0.8,0.11,0.57,3
2881,0.81,0.11,0.57,3
2882,0.8,0.12,0.58,3
2883,0.8,0.11,0.58,3
2884,0.81,0.11,0.57,3
2885,0.81,0.11,0.58,3
2886,0.8,0.11,0.58,3
2887,0.8,0.11,0.57,3
2888,0.82,0.11,0.57,3
2889,0.81,0.12,0.58,3
2890,0.8,0.12,0.56,3
2891,0.81,0.12,0.56,3
2892,0.81,0.12,0.56,3
2893,0.8,0.12,0.56,3
2894,0.81,0.11,0.56,3
2895,0.82,0.11,0.55,3
2896,0.8,0.11,0.56,3
2897,0.8,0.11,0.59,3
2898,0.79,0.12,0.65,3
2899,0.83,0.12,0.83,3
2900,0.86,0.22,1.19,3
2901,1.12,0.38,1.58,3
2902,1.07,0.49,1.62,3
2903,1.26,0.56,1.63,3
2904,1.29,0.55,1.55,3
2905,1.24,0.45,1.38,3
2906,1.06,0.39,1.15,3
2907,0.77,0.41,0.95,3
2908,0.51,0.47,0.7,3
2909,0.24,0.6,0.34,3
2910,-0.06,0.41,-0.04,3
2911,0.13,0.11,-0.33,3
2912,0.09,-0.44,-0.42,3
2913,-0.11,-0.71,-0.33,3
2914,-0.23,-0.77,-0.11,3
2915,-0.25,-0.92,0.07,3
2916,-0.2,-0.9,0.19,3
2917,-0.15,-1.0,0.3,3
2918,-0.14,-0.95,0.37,3
2919,-0.07,-0.96,0.4,3
2920,-0.07,-0.96,0.44,3
2921,-0.12,-0.93,0.42,3
2922,-0.09,-0.94,0.45,3
2923,-0.13,-0.92,0.42,3
2924,-0.13,-0.92,0.41,3
2925,-0.14,-0.9,0.39,3
2926,-0.15,-0.9,0.39,3
2927,-0.15,-0.91,0.36,3
2928,-0.15,-0.89,0.39,3
2929,-0.21,-0.89,0.39,3
2930,-0.22,-0.86,0.38,3
2931,-0.22,-0.8,0.32,3
2932,-0.38,-0.76,0.26,3
2933,-0.34,-0.76,0.37,3
2934,-0.46,-0.62,0.32,3
2935,-0.36,-0.53,0.25,3
2936,-0.22,-0.51,0.23,3
2937,0.06,-0.38,0.32,3
2938,-0.02,-0.39,0.41,3
2939,0.38,-0.46,0.69,3
2940,0.43,-0.69,0.86,3
2941,1.13,-0.65,1.1,3
2942,1.22,-0.83,1.07,3
2943,1.4,-0.84,1.0,3
2944,1.22,-0.78,0.85,3
2945,0.92,-0.65,0.68,3
2946,0.7,-0.54,0.49,3
2947,0.53,-0.45,0.27,3
2948,0.5,-0.4,0.07,3
2949,0.46,-0.26,-0.02,3
2950,0.38,-0.23,-0.02,3
2951,0.58,-0.07,0.07,3
2952,0.68,-0.06,0.34,3
2953,0.85,0.05,0.83,3
2954,0.73,0.01,1.41,3
2955,0.71,0.07,1.78,3
2956,0.48,0.11,1.84,3
2957,0.57,0.24,1.75,3
2958,0.41,0.5,1.59,3
2959,0.03,0.62,1.39,3
2960,0.05,0.6,1.13,3
2961,0.16,0.61,0.88,3
2962,0.17,0.54,0.65,3
2963,0.43,0.49,0.6,3
2964,0.51,0.38,0.59,3
2965,0.83,0.33,0.74,3
2966,0.96,0.15,0.79,3
2967,1.04,0.1,0.84,3
2968,1.32,-0.05,0.78,3
2969,1.45,-0.19,0.74,3
2970,1.49,-0.22,0.64,3
2971,1.48,-0.23,0.56,3
2972,1.3,-0.07,0.43,3
2973,1.07,0.1,0.43,3
2974,0.9,0.25,0.47,3
2975,0.78,0.52,0.59,3
2976,0.61,0.75,0.81,3
2977,0.49,0.77,0.86,3
2978,0.51,0.85,0.85,3
2979,0.7,0.73,0.76,3
2980,0.73,0.78,0.67,3
2981,0.76,0.52,0.62,3
2982,0.8,0.35,0.6,3
2983,1.08,0.34,0.84,3
2984,0.56,0.19,0.57,3
2985,0.91,0.13,0.61,3
2986,0.76,0.18,0.55,3
2987,0.83,0.11,0.58,3
2988,0.83,0.1,0.58,3
2989,0.82,0.11,0.54,3
2990,0.85,0.1,0.53,3
2991,0.87,0.11,0.48,3
2992,0.86,0.1,0.49,3
2993,0.86,0.1,0.49,3
2994,0.84,0.12,0.52,3
2995,0.83,0.13,0.54,3
2996,0.85,0.15,0.51,3
2997,0.87,0.12,0.48,3
2998,0.86,0.11,0.49,3
2999,0.85,0.1,0.5,3
3000,0.82,0.11,0.48,3
3001,0.86,0.11,0.51,3
3002,0.85,0.12,0.54,3
3003,0.85,0.1,0.57,3
3004,0.87,0.14,0.54,3
3005,0.8,0.09,0.54,3
3006,0.85,0.12,0.54,3
3007,0.77,0.1,0.53,3
3008,0.85,0.12,0.54,3
3009,0.84,0.09,0.58,3
3010,0.85,0.08,0.55,3
3011,0.79,0.1,0.49,3
3012,0.75,0.12,0.51,3
3013,0.83,0.1,0.56,3
3014,0.8,0.11,0.61,3
3015,0.85,0.11,0.62,3
3016,0.84,0.08,0.6,3
3017,0.87,0.07,0.53,3
3018,0.72,0.17,0.46,3
3019,0.92,0.02,0.52,3
3020,0.85,0.12,0.5,3
3021,0.85,0.1,0.5,3
3022,0.86,0.1,0.5,3
3023,0.87,0.1,0.51,3
3024,0.83,0.11,0.49,3
3025,0.78,0.12,0.51,0
3026,0.77,0.12,0.53,0
3027,0.85,0.11,0.55,0
3028,0.91,0.1,0.55,0
3029,0.86,0.1,0.54,0
3030,0.83,0.11,0.52,0
3031,0.83,0.11,0.49,0
3032,0.85,0.09,0.48,0
3033,0.92,0.09,0.48,0
3034,0.86,0.09,0.48,0
3035,0.87,0.07,0.48,0
3036,0.87,0.07,0.48,0
3037,0.86,0.09,0.48,0
3038,0.87,0.08,0.48,0
3039,0.88,0.09,0.48,0
3040,0.89,0.1,0.48,0
3041,0.87,0.11,0.48,0
3042,0.86,0.12,0.5,0
3043,0.92,0.17,0.53,0
3044,0.92,0.18,0.56,0
3045,0.81,0.19,0.57,0
3046,0.78,0.15,0.57,0
3047,0.84,0.1,0.54,0
3048,0.84,0.03,0.55,0
3049,0.85,0.02,0.55,0
3050,0.81,0.0,0.58,0
3051,0.74,0.0,0.61,0
3052,0.77,0.0,0.6,0
3053,0.74,-0.02,0.67,0
3054,0.69,-0.03,0.68,0
3055,0.58,-0.01,0.67,0
3056,0.61,0.01,0.71,0
3057,0.69,0.05,0.74,0
3058,0.68,0.1,0.74,0
3059,0.62,0.12,0.75,0
3060,0.62,0.17,0.77,0
3061,0.58,0.17,0.81,0
3062,0.54,0.17,0.78,0
3063,0.57,0.16,0.82,0
3064,0.57,0.18,0.85,0
3065,0.53,0.17,0.86,0
3066,0.48,0.2,0.87,0
3067,0.51,0.2,0.87,0
3068,0.47,0.18,0.84,0
3069,0.52,0.15,0.84,0
3070,0.55,0.13,0.83,0
3071,0.53,0.16,0.8,0
3072,0.52,0.12,0.81,0
3073,0.51,0.11,0.83,0
3074,0.53,0.1,0.85,0
3075,0.57,0.1,0.84,0
3076,0.57,0.06,0.82,0
3077,0.55,0.02,0.86,0
3078,0.49,0.05,0.88,0
3079,0.5,0.03,0.89,0
3080,0.53,0.05,0.9,0
3081,0.54,0.05,0.88,0
3082,0.56,0.07,0.85,0
3083,0.58,0.04,0.84,0
3084,0.58,0.02,0.8,0
3085,0.57,0.01,0.78,0
3086,0.56,0.0,0.8,0
3087,0.54,-0.02,0.84,0
3088,0.53,-0.07,0.85,0
3089,0.53,-0.07,0.88,0
3090,0.55,-0.08,0.88,0
3091,0.56,-0.1,0.87,0
3092,0.55,-0.06,0.86,0
3093,0.52,-0.07,0.91,0
3094,0.47,-0.09,0.96,0
3095,0.44,-0.13,1.02,0
3096,0.46,-0.18,1.06,0
3097,0.52,-0.2,0.96,0
3098,0.52,-0.22,0.81,0
3099,0.47,-0.26,0.75,0
3100,0.39,-0.3,0.74,0
3101,0.42,-0.31,0.77,0
3102,0.44,-0.33,0.8,0
3103,0.37,-0.36,0.72,0
3104,0.35,-0.34,0.62,0
3105,0.47,-0.23,0.64,0
3106,0.64,-0.25,0.74,0
