sequence,accelx,accely,accelz,event
0,0.25,0.0,0.97,0
1,0.26,-0.01,0.97,0
2,0.25,-0.01,0.97,0
3,0.26,-0.01,0.97,0
4,0.27,-0.01,0.97,0
5,0.26,-0.01,0.97,0
6,0.26,-0.01,0.96,0
7,0.26,0.0,0.97,0
8,0.26,0.0,0.97,0
9,0.26,-0.01,0.97,0
10,0.26,-0.01,0.97,0
11,0.26,-0.01,0.98,0
12,0.26,-0.01,0.97,0
13,0.26,-0.01,0.97,0
14,0.26,-0.01,0.97,0
15,0.27,-0.01,0.97,0
16,0.27,-0.01,0.96,0
17,0.27,-0.01,0.96,0
18,0.26,0.0,0.96,0
19,0.27,0.0,0.97,0
20,0.26,0.0,0.97,0
21,0.26,-0.01,0.97,0
22,0.27,-0.01,0.97,0
23,0.27,-0.01,0.98,0
24,0.27,-0.01,0.97,0
25,0.26,0.0,0.97,0
26,0.26,-0.01,0.96,0
27,0.27,-0.01,0.96,0
28,0.27,0.0,0.97,0
29,0.27,0.0,0.97,0
30,0.27,0.0,0.97,0
31,0.26,0.0,0.97,0
32,0.26,0.0,0.97,0
33,0.26,0.0,0.97,0
34,0.26,-0.01,0.97,0
35,0.27,0.0,0.97,0
36,0.26,-0.01,0.97,0
37,0.26,0.0,0.97,0
38,0.26,0.0,0.97,0
39,0.25,0.0,0.97,0
40,0.25,0.0,0.97,0
41,0.26,0.0,0.97,0
42,0.26,0.0,0.97,0
43,0.25,0.0,0.97,0
44,0.26,-0.01,0.98,0
45,0.26,0.0,0.98,0
46,0.24,0.0,0.97,0
47,0.24,-0.01,0.96,0
48,0.25,-0.01,0.96,0
49,0.25,0.0,0.97,0
50,0.24,-0.01,0.96,0
51,0.24,-0.01,0.96,0
52,0.25,0.0,0.97,0
53,0.25,-0.01,0.97,0
54,0.23,-0.01,0.97,0
55,0.25,-0.01,0.97,0
56,0.24,0.0,0.98,0
57,0.24,0.0,0.98,0
58,0.24,0.0,0.98,0
59,0.24,0.0,0.98,0
60,0.25,0.0,0.98,0
61,0.23,0.0,0.97,0
62,0.23,0.0,0.94,0
63,0.23,0.0,0.95,0
64,0.24,0.0,0.97,0
65,0.24,0.0,0.98,0
66,0.24,0.0,0.97,0
67,0.24,0.0,0.97,0
68,0.23,0.0,0.97,0
69,0.23,0.0,0.98,0
70,0.24,0.01,0.98,0
71,0.24,0.0,0.97,0
72,0.23,0.0,0.97,0
73,0.26,0.0,0.97,0
74,0.23,0.0,0.97,0
75,0.25,0.0,0.97,0
76,0.26,0.0,0.97,0
77,0.26,0.0,0.97,0
78,0.26,0.0,0.97,0
79,0.25,0.01,0.97,0
80,0.25,0.01,0.97,0
81,0.25,0.0,0.97,0
82,0.25,0.01,0.97,0
83,0.26,0.01,0.97,0
84,0.27,0.0,0.97,0
85,0.24,0.01,0.97,0
86,0.27,0.01,0.98,0
87,0.21,0.0,0.96,0
88,0.24,0.02,0.96,0
89,0.26,0.01,0.97,0
90,0.23,0.01,0.97,0
91,0.24,0.01,0.99,0
92,0.2,0.01,0.97,0
93,0.19,0.01,0.99,0
94,0.19,0.02,0.98,0
95,0.25,0.01,0.96,0
96,0.22,0.02,0.97,0
97,0.2,0.01,1.0,0
98,0.2,0.02,1.01,0
99,0.2,0.02,1.03,0
100,0.22,0.01,1.0,0
101,0.29,0.01,0.97,0
102,0.25,0.02,0.95,0
103,0.28,0.02,0.94,0
104,0.22,0.0,0.94,0
105,0.28,0.01,0.95,0
106,0.26,0.02,0.96,0
107,0.27,0.02,0.97,0
108,0.26,0.02,0.97,0
109,0.27,0.01,0.98,0
110,0.26,0.01,0.97,0
111,0.26,0.01,0.97,0
112,0.27,0.0,0.97,0
113,0.27,0.01,0.97,0
114,0.27,0.01,0.96,0
115,0.27,0.01,0.96,0
116,0.27,0.01,0.97,0
117,0.27,0.01,0.97,0
118,0.26,0.01,0.97,0
119,0.27,0.01,0.97,0
120,0.26,0.01,0.97,0
121,0.27,0.01,0.97,0
122,0.27,0.01,0.97,0
123,0.27,0.01,0.97,0
124,0.27,0.0,0.97,0
125,0.27,0.01,0.97,3
126,0.27,0.02,0.96,3
127,0.27,0.02,0.97,3
128,0.25,0.03,0.97,3
129,0.26,0.02,0.97,3
130,0.26,0.01,0.97,3
131,0.26,0.02,0.97,3
132,0.26,0.02,0.97,3
133,0.27,0.01,0.97,3
134,0.25,0.02,0.97,3
135,0.26,0.02,0.97,3
136,0.27,0.01,0.97,3
137,0.26,0.01,0.97,3
138,0.26,0.02,0.97,3
139,0.26,0.02,0.97,3
140,0.26,0.01,0.97,3
141,0.27,0.01,0.97,3
142,0.26,0.02,0.97,3
143,0.26,0.02,0.97,3
144,0.26,0.02,0.97,3
145,0.28,0.01,0.98,3
146,0.25,0.03,0.97,3
147,0.25,0.03,0.96,3
148,0.26,0.04,0.96,3
149,0.24,0.04,0.96,3
150,0.23,0.04,0.97,3
151,0.18,0.04,1.05,3
152,0.11,0.03,1.2,3
153,0.0,0.06,1.46,3
154,-0.03,0.13,1.62,3
155,0.22,0.11,1.79,3
156,0.08,0.22,1.72,3
157,0.36,0.16,1.69,3
158,0.43,0.1,1.58,3
159,0.26,0.03,1.25,3
160,0.29,0.02,0.97,3
161,0.36,-0.08,0.75,3
162,0.14,-0.09,0.43,3
163,0.04,-0.24,0.28,3
164,-0.02,-0.28,0.19,3
165,-0.26,-0.34,-0.02,3
166,-0.25,-0.44,-0.07,3
167,-0.36,-0.4,-0.14,3
168,-0.29,-0.42,-0.05,3
169,-0.28,-0.33,0.04,3
170,-0.3,-0.29,0.11,3
171,-0.25,-0.28,0.28,3
172,-0.1,-0.26,0.42,3
173,0.09,-0.27,0.81,3
174,0.09,-0.18,0.99,3
175,0.27,-0.14,1.46,3
176,0.1,0.0,1.53,3
177,0.28,0.07,1.57,3
178,0.32,0.09,1.56,3
179,0.16,0.1,1.46,3
180,0.24,0.1,1.37,3
181,0.26,0.1,1.29,3
182,0.26,0.09,1.2,3
183,0.34,0.05,1.09,3
184,0.32,0.03,1.01,3
185,0.42,0.03,0.96,3
186,0.42,0.06,0.94,3
187,0.45,0.05,0.88,3
188,0.46,0.04,0.88,3
189,0.44,0.04,0.92,3
190,0.46,0.04,0.93,3
191,0.45,0.06,0.91,3
192,0.45,0.09,0.91,3
193,0.51,0.03,0.91,3
194,0.46,0.04,0.89,3
195,0.47,0.05,0.92,3
196,0.43,0.05,0.88,3
197,0.47,0.05,0.9,3
198,0.44,0.09,0.91,3
199,0.44,0.04,0.89,3
200,0.45,0.07,0.88,3
201,0.42,0.08,0.95,3
202,0.43,0.08,0.96,3
203,0.42,0.11,0.96,3
204,0.46,0.0,0.93,3
205,0.45,0.0,0.85,3
206,0.41,0.12,0.86,3
207,0.44,-0.02,0.86,3
208,0.36,0.05,0.87,3
209,0.46,0.07,0.97,3
210,0.38,0.11,0.99,3
211,0.43,0.0,0.96,3
212,0.5,0.06,0.91,3
213,0.45,0.05,0.85,3
214,0.44,0.05,0.87,3
215,0.46,0.04,0.88,3
216,0.46,0.04,0.87,3
217,0.46,0.07,0.88,3
218,0.46,0.03,0.9,3
219,0.46,0.04,0.88,3
220,0.46,0.05,0.89,3
221,0.48,0.06,0.89,3
222,0.46,0.08,0.87,3
223,0.46,0.07,0.87,3
224,0.48,0.05,0.89,3
225,0.46,0.06,0.88,0
226,0.46,0.06,0.89,0
227,0.46,0.05,0.88,0
228,0.46,0.05,0.88,0
229,0.46,0.06,0.89,0
230,0.46,0.06,0.9,0
231,0.46,0.06,0.9,0
232,0.46,0.06,0.88,0
233,0.46,0.05,0.88,0
234,0.46,0.06,0.87,0
235,0.46,0.06,0.89,0
236,0.46,0.05,0.9,0
237,0.46,0.05,0.89,0
238,0.46,0.05,0.88,0
239,0.46,0.05,0.89,0
240,0.46,0.05,0.89,0
241,0.46,0.05,0.89,0
242,0.46,0.04,0.89,0
243,0.46,0.05,0.88,0
244,0.46,0.05,0.89,0
245,0.46,0.05,0.89,0
246,0.46,0.06,0.89,0
247,0.46,0.06,0.91,0
248,0.46,0.07,0.89,0
249,0.47,0.06,0.91,0
250,0.46,0.05,0.9,0
251,0.46,0.04,0.89,0
252,0.46,0.04,0.88,0
253,0.42,0.07,0.87,0
254,0.46,0.07,0.9,0
255,0.47,0.05,0.88,0
256,0.46,0.05,0.88,0
257,0.46,0.06,0.89,0
258,0.46,0.07,0.9,0
259,0.46,0.05,0.89,0
260,0.46,0.05,0.88,0
261,0.46,0.06,0.9,0
262,0.46,0.06,0.89,0
263,0.46,0.05,0.89,0
264,0.46,0.05,0.88,0
265,0.46,0.06,0.89,0
266,0.46,0.06,0.89,0
267,0.46,0.06,0.88,0
268,0.46,0.06,0.88,0
269,0.46,0.07,0.88,0
270,0.46,0.06,0.89,0
271,0.46,0.05,0.9,0
272,0.46,0.05,0.9,0
273,0.46,0.05,0.88,0
274,0.46,0.05,0.89,0
275,0.46,0.05,0.89,0
276,0.46,0.06,0.88,0
277,0.46,0.06,0.89,0
278,0.46,0.05,0.89,0
279,0.46,0.05,0.89,0
280,0.46,0.05,0.89,0
281,0.46,0.05,0.9,0
282,0.46,0.05,0.9,0
283,0.46,0.05,0.89,0
284,0.46,0.05,0.89,0
285,0.46,0.05,0.89,0
286,0.46,0.06,0.9,0
287,0.46,0.06,0.9,0
288,0.46,0.05,0.89,0
289,0.46,0.05,0.9,0
290,0.46,0.05,0.89,0
291,0.46,0.05,0.89,0
292,0.46,0.05,0.89,0
293,0.46,0.05,0.89,0
294,0.46,0.05,0.89,0
295,0.46,0.05,0.89,0
296,0.46,0.05,0.89,0
297,0.46,0.05,0.9,0
298,0.46,0.06,0.9,0
299,0.46,0.05,0.89,0
300,0.46,0.05,0.89,0
301,0.46,0.05,0.89,0
302,0.46,0.05,0.89,0
303,0.46,0.05,0.9,0
304,0.46,0.05,0.89,0
305,0.46,0.04,0.9,0
306,0.46,0.04,0.9,0
307,0.46,0.04,0.89,0
308,0.46,0.05,0.89,0
309,0.46,0.05,0.89,0
310,0.46,0.05,0.89,0
311,0.46,0.04,0.89,0
312,0.46,0.05,0.89,0
313,0.46,0.05,0.9,0
314,0.46,0.05,0.89,0
315,0.46,0.04,0.89,0
316,0.46,0.04,0.9,0
317,0.46,0.05,0.89,0
318,0.46,0.05,0.89,0
319,0.46,0.05,0.89,0
320,0.46,0.05,0.89,0
321,0.46,0.05,0.89,0
322,0.46,0.04,0.89,0
323,0.46,0.05,0.89,0
324,0.46,0.05,0.89,0
325,0.46,0.05,0.89,0
326,0.46,0.05,0.89,0
327,0.46,0.05,0.89,0
328,0.46,0.05,0.9,0
329,0.46,0.04,0.9,0
330,0.46,0.05,0.9,0
331,0.46,0.05,0.89,0
332,0.46,0.05,0.89,0
333,0.46,0.05,0.9,0
334,0.46,0.05,0.89,0
335,0.46,0.05,0.89,0
336,0.46,0.05,0.89,0
337,0.46,0.05,0.89,0
338,0.46,0.05,0.9,0
339,0.46,0.05,0.9,0
340,0.46,0.05,0.9,0
341,0.46,0.05,0.89,0
342,0.46,0.05,0.89,0
343,0.46,0.05,0.89,0
344,0.46,0.05,0.89,0
345,0.46,0.05,0.89,0
346,0.45,0.04,0.89,0
347,0.45,0.05,0.88,0
348,0.47,0.04,0.91,0
349,0.42,0.07,0.89,0
350,0.47,0.03,0.89,0
351,0.43,0.07,0.9,0
352,0.45,0.04,0.91,0
353,0.45,0.04,0.9,0
354,0.4,0.07,0.92,0
355,0.43,0.05,0.93,0
356,0.42,0.04,0.9,0
357,0.42,0.05,0.94,0
358,0.42,0.07,0.97,0
359,0.45,0.05,0.95,0
360,0.47,0.03,0.88,0
361,0.44,0.07,0.85,0
362,0.45,0.05,0.88,0
363,0.44,0.05,0.88,0
364,0.46,0.05,0.88,0
365,0.46,0.05,0.89,0
366,0.46,0.05,0.9,0
367,0.46,0.07,0.88,0
368,0.48,0.04,0.91,0
369,0.46,0.05,0.89,0
370,0.46,0.05,0.89,0
371,0.46,0.05,0.88,0
372,0.46,0.04,0.88,0
373,0.46,0.04,0.88,0
374,0.46,0.05,0.88,0
375,0.46,0.05,0.88,3
376,0.46,0.05,0.88,3
377,0.46,0.05,0.89,3
378,0.46,0.05,0.9,3
379,0.46,0.05,0.9,3
380,0.46,0.05,0.89,3
381,0.46,0.05,0.88,3
382,0.46,0.05,0.88,3
383,0.46,0.04,0.88,3
384,0.46,0.05,0.88,3
385,0.46,0.05,0.88,3
386,0.46,0.04,0.88,3
387,0.46,0.05,0.89,3
388,0.46,0.04,0.9,3
389,0.46,0.05,0.9,3
390,0.46,0.05,0.89,3
391,0.46,0.05,0.89,3
392,0.46,0.05,0.88,3
393,0.46,0.05,0.88,3
394,0.47,0.04,0.89,3
395,0.48,0.04,0.92,3
396,0.46,0.04,0.96,3
397,0.36,0.05,0.89,3
398,0.35,0.06,0.87,3
399,0.43,0.02,0.95,3
400,0.45,-0.02,1.06,3
401,0.35,-0.01,1.34,3
402,0.23,0.05,1.63,3
403,0.25,0.14,1.88,3
404,0.18,0.27,1.86,3
405,0.36,0.32,1.72,3
406,0.36,0.36,1.46,3
407,0.23,0.37,1.18,3
408,0.11,0.45,0.96,3
409,0.07,0.39,0.66,3
410,-0.1,0.37,0.41,3
411,-0.16,0.28,0.17,3
412,-0.08,0.06,0.1,3
413,-0.32,-0.11,-0.05,3
414,-0.2,-0.33,-0.16,3
415,0.01,-0.54,-0.27,3
416,0.24,-0.62,-0.39,3
417,0.44,-0.93,-0.37,3
418,0.47,-1.05,-0.28,3
419,0.66,-1.08,0.1,3
420,0.68,-1.15,0.41,3
421,0.86,-0.94,0.88,3
422,0.75,-0.64,1.16,3
423,0.66,-0.45,1.32,3
424,0.4,-0.15,1.56,3
425,0.1,0.0,1.7,3
426,0.02,0.11,1.79,3
427,-0.07,0.16,1.52,3
428,0.11,0.12,1.18,3
429,0.28,0.05,0.89,3
430,0.32,-0.03,0.65,3
431,0.38,-0.13,0.46,3
432,0.58,-0.24,0.27,3
433,0.8,-0.41,0.18,3
434,0.91,-0.52,0.14,3
435,1.01,-0.59,0.31,3
436,1.07,-0.57,0.48,3
437,1.08,-0.48,0.77,3
438,1.06,-0.39,0.84,3
439,0.96,-0.23,0.96,3
440,0.92,-0.13,0.94,3
441,0.81,0.13,0.96,3
442,0.73,0.23,0.89,3
443,0.78,0.29,0.78,3
444,0.72,0.35,0.65,3
445,0.7,0.24,0.57,3
446,0.76,0.21,0.58,3
447,0.73,0.19,0.54,3
448,0.78,0.1,0.62,3
449,0.75,0.08,0.61,3
450,0.79,0.0,0.66,3
451,0.8,-0.01,0.62,3
452,0.77,-0.02,0.59,3
453,0.8,0.0,0.6,3
454,0.84,-0.02,0.61,3
455,0.84,-0.01,0.63,3
456,0.8,0.0,0.61,3
457,0.8,0.01,0.6,3
458,0.8,0.0,0.61,3
459,0.82,0.0,0.58,3
460,0.81,0.0,0.59,3
461,0.78,0.01,0.6,3
462,0.75,0.0,0.63,3
463,0.81,0.01,0.62,3
464,0.72,0.0,0.55,3
465,0.8,0.02,0.58,3
466,0.73,0.02,0.62,3
467,0.77,0.06,0.74,3
468,0.77,-0.03,0.71,3
469,0.77,0.0,0.71,3
470,0.77,0.04,0.74,3
471,0.73,0.0,0.7,3
472,0.83,-0.06,0.55,3
473,0.66,0.1,0.61,3
474,0.78,-0.05,0.6,3
475,0.71,0.04,0.65,3
476,0.78,0.01,0.7,3
477,0.74,0.04,0.74,3
478,0.75,-0.01,0.68,3
479,0.78,0.02,0.6,3
480,0.74,0.03,0.6,3
481,0.74,0.01,0.65,3
482,0.79,0.03,0.63,3
483,0.76,0.03,0.59,3
484,0.83,0.02,0.64,3
485,0.75,0.0,0.64,3
486,0.78,0.0,0.63,3
487,0.76,0.0,0.62,3
488,0.78,0.0,0.62,3
489,0.78,0.0,0.62,3
490,0.76,0.0,0.62,3
491,0.76,0.0,0.62,3
492,0.77,0.0,0.62,3
493,0.77,0.0,0.63,3
494,0.77,0.0,0.63,3
495,0.77,0.0,0.62,3
496,0.77,0.0,0.61,3
497,0.77,0.0,0.62,3
498,0.77,0.0,0.63,3
499,0.77,0.0,0.62,3
500,0.78,0.0,0.61,0
501,0.77,0.0,0.61,0
502,0.77,0.0,0.62,0
503,0.78,0.0,0.62,0
504,0.77,0.0,0.62,0
505,0.77,0.0,0.62,0
506,0.78,0.0,0.63,0
507,0.77,0.01,0.63,0
508,0.77,0.0,0.63,0
509,0.77,0.0,0.63,0
510,0.77,0.0,0.63,0
511,0.76,0.0,0.62,0
512,0.76,0.0,0.63,0
513,0.77,0.0,0.62,0
514,0.77,0.0,0.63,0
515,0.77,0.0,0.64,0
516,0.77,0.0,0.65,0
517,0.77,0.0,0.64,0
518,0.76,0.0,0.63,0
519,0.77,0.0,0.62,0
520,0.76,0.01,0.63,0
521,0.77,0.01,0.63,0
522,0.76,0.0,0.62,0
523,0.77,0.0,0.64,0
524,0.76,0.01,0.64,0
525,0.76,0.01,0.65,0
526,0.77,0.0,0.64,0
527,0.75,0.01,0.64,0
528,0.76,0.0,0.64,0
529,0.76,0.0,0.64,0
530,0.76,0.0,0.63,0
531,0.77,0.0,0.63,0
532,0.77,0.01,0.63,0
533,0.77,0.0,0.64,0
534,0.77,0.01,0.65,0
535,0.75,0.01,0.64,0
536,0.76,0.01,0.63,0
537,0.77,0.01,0.64,0
538,0.77,0.01,0.63,0
539,0.77,0.0,0.64,0
540,0.77,0.0,0.64,0
541,0.77,0.0,0.63,0
542,0.77,-0.01,0.64,0
543,0.77,0.0,0.64,0
544,0.77,0.0,0.64,0
545,0.76,0.0,0.63,0
546,0.77,0.0,0.64,0
547,0.75,0.0,0.63,0
548,0.77,0.0,0.64,0
549,0.76,0.01,0.64,0
550,0.77,0.0,0.64,0
551,0.76,0.0,0.64,0
552,0.76,0.0,0.64,0
553,0.75,0.0,0.65,0
554,0.75,0.01,0.66,0
555,0.77,0.0,0.64,0
556,0.76,0.0,0.62,0
557,0.76,0.0,0.62,0
558,0.76,0.0,0.62,0
559,0.76,0.01,0.63,0
560,0.77,0.01,0.64,0
561,0.77,0.01,0.65,0
562,0.77,0.0,0.66,0
563,0.77,0.0,0.65,0
564,0.76,0.0,0.63,0
565,0.76,0.01,0.62,0
566,0.77,0.0,0.61,0
567,0.76,0.0,0.62,0
568,0.77,0.0,0.64,0
569,0.77,0.0,0.65,0
570,0.77,0.0,0.64,0
571,0.77,-0.01,0.63,0
572,0.77,0.0,0.63,0
573,0.77,0.0,0.63,0
574,0.76,0.0,0.63,0
575,0.76,0.0,0.62,0
576,0.77,0.0,0.63,0
577,0.77,0.0,0.63,0
578,0.76,0.0,0.63,0
579,0.77,0.0,0.63,0
580,0.77,0.0,0.64,0
581,0.77,0.0,0.64,0
582,0.77,0.0,0.63,0
583,0.77,0.0,0.63,0
584,0.76,0.0,0.63,0
585,0.77,0.0,0.63,0
586,0.77,0.0,0.62,0
587,0.77,0.0,0.64,0
588,0.76,0.0,0.64,0
589,0.77,0.0,0.63,0
590,0.77,0.0,0.62,0
591,0.77,0.0,0.62,0
592,0.77,0.0,0.63,0
593,0.77,0.0,0.63,0
594,0.77,0.0,0.63,0
595,0.77,0.0,0.63,0
596,0.77,0.0,0.62,0
597,0.77,0.0,0.63,0
598,0.77,0.01,0.63,0
599,0.77,0.01,0.63,0
600,0.77,0.0,0.63,0
601,0.77,0.0,0.62,0
602,0.77,0.0,0.63,0
603,0.77,0.0,0.63,0
604,0.77,0.0,0.62,0
605,0.77,0.0,0.62,0
606,0.77,0.0,0.63,0
607,0.77,0.0,0.63,0
608,0.77,0.0,0.63,0
609,0.77,0.0,0.62,0
610,0.77,0.0,0.62,0
611,0.77,0.0,0.62,0
612,0.77,0.0,0.62,0
613,0.77,0.0,0.62,0
614,0.77,0.0,0.63,0
615,0.77,0.0,0.63,0
616,0.76,0.0,0.62,0
617,0.77,0.0,0.63,0
618,0.77,0.0,0.62,0
619,0.77,0.0,0.63,0
620,0.77,0.01,0.63,0
621,0.77,0.0,0.63,0
622,0.77,0.0,0.62,0
623,0.77,0.0,0.62,0
624,0.77,0.0,0.62,0
625,0.77,0.0,0.61,0
626,0.77,0.0,0.62,0
627,0.77,0.0,0.63,0
628,0.77,0.0,0.63,0
629,0.78,0.0,0.63,0
630,0.77,0.0,0.62,0
631,0.77,0.0,0.62,0
632,0.77,0.0,0.62,0
633,0.77,0.0,0.61,0
634,0.77,0.0,0.61,0
635,0.77,0.0,0.62,0
636,0.77,0.0,0.63,0
637,0.77,0.0,0.63,0
638,0.77,0.0,0.63,0
639,0.77,0.0,0.62,0
640,0.77,0.0,0.62,0
641,0.77,0.0,0.61,0
642,0.77,0.0,0.61,0
643,0.77,0.0,0.62,0
644,0.77,0.0,0.62,0
645,0.77,0.0,0.63,0
646,0.77,0.0,0.63,0
647,0.78,0.0,0.63,0
648,0.77,0.0,0.63,0
649,0.77,0.0,0.61,0
650,0.77,0.0,0.61,0
651,0.77,0.0,0.61,0
652,0.77,0.0,0.62,0
653,0.77,0.0,0.61,0
654,0.77,0.0,0.62,0
655,0.77,-0.01,0.63,0
656,0.77,-0.01,0.62,0
657,0.77,0.0,0.62,0
658,0.77,0.0,0.64,0
659,0.77,-0.01,0.61,0
660,0.74,0.0,0.64,0
661,0.76,0.0,0.65,0
662,0.76,-0.01,0.66,0
663,0.75,0.0,0.66,0
664,0.77,0.0,0.66,0
665,0.74,0.0,0.66,0
666,0.74,-0.01,0.63,0
667,0.72,0.01,0.66,0
668,0.78,-0.01,0.67,0
669,0.74,-0.01,0.68,0
670,0.74,0.0,0.7,0
671,0.72,0.05,0.7,0
672,0.77,0.0,0.68,0
673,0.75,0.0,0.64,0
674,0.77,0.0,0.62,0
675,0.76,0.01,0.62,0
676,0.75,-0.01,0.62,0
677,0.76,0.0,0.62,0
678,0.77,0.0,0.63,0
679,0.76,0.0,0.63,0
680,0.77,0.0,0.64,0
681,0.77,0.0,0.64,0
682,0.77,0.0,0.63,0
683,0.77,0.0,0.63,0
684,0.77,0.0,0.64,0
685,0.76,0.0,0.63,0
686,0.77,0.0,0.63,0
687,0.77,0.0,0.63,0
688,0.77,0.0,0.64,0
689,0.77,0.0,0.64,0
690,0.76,0.0,0.63,0
691,0.77,0.0,0.63,0
692,0.77,0.0,0.63,0
693,0.76,0.0,0.64,0
694,0.77,0.0,0.63,0
695,0.76,0.0,0.63,0
696,0.76,-0.01,0.63,0
697,0.77,0.0,0.63,0
698,0.76,0.0,0.63,0
699,0.76,0.0,0.64,0
700,0.77,-0.01,0.63,3
701,0.77,0.0,0.64,3
702,0.77,0.0,0.63,3
703,0.77,-0.01,0.64,3
704,0.77,-0.01,0.63,3
705,0.77,-0.01,0.64,3
706,0.76,-0.01,0.63,3
707,0.76,-0.01,0.63,3
708,0.77,-0.01,0.63,3
709,0.77,0.0,0.63,3
710,0.77,0.0,0.63,3
711,0.76,0.0,0.63,3
712,0.76,0.0,0.63,3
713,0.77,-0.01,0.63,3
714,0.77,0.0,0.65,3
715,0.77,-0.01,0.63,3
716,0.77,0.0,0.62,3
717,0.77,0.0,0.63,3
718,0.77,-0.01,0.63,3
719,0.78,0.01,0.65,3
720,0.75,0.06,0.74,3
721,0.52,0.16,0.83,3
722,0.79,0.18,1.08,3
723,0.79,0.13,1.36,3
724,1.1,0.07,1.46,3
725,1.47,-0.12,1.23,3
726,1.31,-0.37,0.87,3
727,1.41,-0.5,0.38,3
728,1.07,-0.65,0.04,3
729,0.73,-0.87,-0.31,3
730,0.57,-0.98,-0.6,3
731,0.45,-0.92,-0.93,3
732,0.46,-0.61,-1.01,3
733,0.43,-0.3,-0.78,3
734,0.29,0.0,-0.48,3
735,0.23,0.19,-0.16,3
736,0.2,0.37,0.14,3
737,0.11,0.47,0.52,3
738,0.12,0.37,0.82,3
739,0.21,0.48,1.03,3
740,0.35,0.36,0.98,3
741,0.56,0.34,1.22,3
742,0.65,0.15,1.22,3
743,0.72,0.14,1.31,3
744,0.73,-0.05,1.33,3
745,0.79,-0.01,1.25,3
746,0.89,-0.16,1.07,3
747,0.84,-0.26,0.91,3
748,0.75,-0.24,0.73,3
749,0.85,-0.16,0.68,3
750,0.94,-0.21,0.58,3
751,0.93,-0.18,0.59,3
752,0.94,-0.12,0.55,3
753,0.95,-0.11,0.6,3
754,0.87,-0.05,0.58,3
755,0.91,-0.02,0.58,3
756,0.86,-0.04,0.59,3
757,0.85,-0.03,0.56,3
758,0.86,-0.03,0.51,3
759,0.9,0.01,0.49,3
760,0.89,0.01,0.5,3
761,0.89,0.02,0.48,3
762,0.88,0.0,0.48,3
763,0.88,0.02,0.48,3
764,0.87,0.03,0.47,3
765,0.86,0.04,0.48,3
766,0.88,0.0,0.47,3
767,0.85,0.03,0.47,3
768,0.89,0.01,0.48,3
769,0.89,0.03,0.49,3
770,0.85,0.01,0.47,3
771,0.86,0.04,0.52,3
772,0.83,-0.02,0.47,3
773,0.94,0.01,0.51,3
774,0.9,0.0,0.57,3
775,0.92,0.04,0.52,3
776,0.86,0.06,0.52,3
777,0.84,0.0,0.48,3
778,0.85,0.02,0.45,3
779,0.78,0.1,0.47,3
780,0.84,0.0,0.5,3
781,0.85,0.02,0.5,3
782,0.88,0.03,0.48,3
783,0.86,0.06,0.55,3
784,0.89,0.04,0.57,3
785,0.88,0.03,0.53,3
786,0.87,0.03,0.46,3
787,0.79,0.07,0.43,3
788,0.91,0.03,0.47,3
789,0.87,0.04,0.47,3
790,0.88,0.04,0.47,3
791,0.87,0.04,0.47,3
792,0.88,0.03,0.47,3
793,0.88,0.04,0.47,3
794,0.88,0.04,0.48,3
795,0.87,0.04,0.48,3
796,0.86,0.04,0.47,3
797,0.86,0.04,0.47,3
798,0.87,0.04,0.48,3
799,0.87,0.04,0.47,3
800,0.87,0.04,0.47,0
801,0.87,0.04,0.48,0
802,0.87,0.03,0.47,0
803,0.86,0.02,0.48,0
804,0.86,0.03,0.47,0
805,0.87,0.04,0.47,0
806,0.87,0.04,0.47,0
807,0.87,0.04,0.47,0
808,0.87,0.04,0.47,0
809,0.87,0.04,0.47,0
810,0.87,0.04,0.47,0
811,0.88,0.04,0.47,0
812,0.86,0.04,0.47,0
813,0.87,0.04,0.47,0
814,0.88,0.04,0.47,0
815,0.88,0.04,0.47,0
816,0.9,0.04,0.47,0
817,0.9,0.05,0.47,0
818,0.89,0.05,0.47,0
819,0.88,0.05,0.47,0
820,0.89,0.05,0.47,0
821,0.88,0.03,0.48,0
822,0.86,0.02,0.5,0
823,0.86,0.01,0.5,0
824,0.85,0.02,0.49,0
825,0.85,0.03,0.48,0
826,0.84,0.02,0.48,0
827,0.85,0.02,0.5,0
828,0.85,0.02,0.49,0
829,0.89,0.03,0.5,0
830,0.86,0.03,0.49,0
831,0.85,0.02,0.48,0
832,0.85,0.02,0.49,0
833,0.86,0.02,0.49,0
834,0.88,0.02,0.49,0
835,0.89,0.01,0.49,0
836,0.88,0.01,0.48,0
837,0.87,0.02,0.48,0
838,0.9,0.01,0.5,0
839,0.9,0.0,0.49,0
840,0.89,0.0,0.49,0
841,0.87,0.01,0.51,0
842,0.85,0.0,0.51,0
843,0.85,0.0,0.54,0
844,0.83,-0.01,0.54,0
845,0.84,-0.02,0.55,0
846,0.83,-0.01,0.55,0
847,0.78,-0.02,0.55,0
848,0.76,-0.05,0.55,0
849,0.8,-0.07,0.55,0
850,0.79,-0.07,0.56,0
851,0.79,-0.11,0.58,0
852,0.78,-0.1,0.6,0
853,0.78,-0.11,0.6,0
854,0.81,-0.09,0.62,0
855,0.79,-0.09,0.61,0
856,0.79,-0.09,0.59,0
857,0.8,-0.09,0.57,0
858,0.78,-0.1,0.56,0
859,0.77,-0.1,0.55,0
860,0.78,-0.1,0.56,0
861,0.79,-0.08,0.55,0
862,0.83,-0.1,0.57,0
863,0.84,-0.08,0.57,0
864,0.86,-0.09,0.57,0
865,0.84,-0.1,0.58,0
866,0.82,-0.11,0.6,0
867,0.82,-0.11,0.6,0
868,0.83,-0.07,0.57,0
869,0.86,-0.05,0.54,0
870,0.87,-0.02,0.53,0
871,0.87,-0.01,0.51,0
872,0.85,0.0,0.51,0
873,0.84,0.0,0.51,0
874,0.85,-0.02,0.49,0
875,0.85,0.0,0.49,0
876,0.86,0.0,0.5,0
877,0.87,0.0,0.51,0
878,0.87,0.01,0.53,0
879,0.86,0.0,0.51,0
880,0.85,0.0,0.49,0
881,0.85,-0.01,0.49,0
882,0.86,0.0,0.48,0
883,0.86,0.0,0.48,0
884,0.87,0.01,0.48,0
885,0.86,0.01,0.48,0
886,0.86,0.02,0.47,0
887,0.87,0.03,0.47,0
888,0.88,0.03,0.47,0
889,0.87,0.02,0.47,0
890,0.89,0.02,0.47,0
891,0.89,0.02,0.47,0
892,0.86,0.02,0.47,0
893,0.89,0.0,0.47,0
894,0.89,0.02,0.47,0
895,0.88,0.03,0.47,0
896,0.87,0.02,0.47,0
897,0.9,0.01,0.47,0
898,0.9,0.01,0.47,0
899,0.89,0.02,0.47,0
900,0.87,0.03,0.47,0
901,0.87,0.03,0.46,0
902,0.89,0.03,0.45,0
903,0.89,0.04,0.46,0
904,0.88,0.04,0.46,0
905,0.88,0.03,0.46,0
906,0.89,0.03,0.45,0
907,0.9,0.02,0.46,0
908,0.9,0.02,0.46,0
909,0.9,0.02,0.46,0
910,0.91,0.01,0.45,0
911,0.89,0.02,0.44,0
912,0.89,0.01,0.45,0
913,0.89,0.02,0.45,0
914,0.9,0.01,0.45,0
915,0.9,0.01,0.45,0
916,0.91,0.02,0.46,0
917,0.89,0.03,0.45,0
918,0.9,0.02,0.45,0
919,0.89,0.02,0.45,0
920,0.89,0.02,0.45,0
921,0.88,0.01,0.45,0
922,0.89,0.0,0.45,0
923,0.88,0.0,0.45,0
924,0.9,0.0,0.45,0
925,0.88,0.01,0.46,0
926,0.88,0.01,0.46,0
927,0.9,0.0,0.45,0
928,0.91,0.02,0.45,0
929,0.9,0.01,0.45,0
930,0.9,0.01,0.46,0
931,0.91,0.01,0.45,0
932,0.88,0.03,0.45,0
933,0.91,0.03,0.46,0
934,0.89,0.01,0.47,0
935,0.88,0.03,0.47,0
936,0.88,0.04,0.47,0
937,0.87,0.02,0.47,0
938,0.87,0.0,0.46,0
939,0.87,0.04,0.47,0
940,0.86,0.03,0.55,0
941,0.87,0.02,0.48,0
942,0.85,0.01,0.47,0
943,0.84,0.02,0.53,0
944,0.91,0.02,0.49,0
945,0.91,0.02,0.47,0
946,0.86,0.01,0.46,0
947,0.85,0.01,0.47,0
948,0.86,0.02,0.47,0
949,0.86,0.02,0.47,0
950,0.87,0.01,0.48,0
951,0.86,0.02,0.48,0
952,0.87,0.03,0.49,0
953,0.91,0.0,0.48,0
954,0.88,0.04,0.47,0
955,0.87,0.03,0.48,0
956,0.89,0.02,0.48,0
957,0.87,0.02,0.48,0
958,0.85,0.0,0.48,0
959,0.86,0.01,0.5,0
960,0.85,0.02,0.5,0
961,0.87,0.02,0.5,0
962,0.86,0.03,0.49,0
963,0.86,0.03,0.48,0
964,0.86,0.02,0.49,0
965,0.86,0.02,0.49,0
966,0.86,0.02,0.49,0
967,0.86,0.02,0.5,0
968,0.87,0.02,0.48,0
969,0.86,0.03,0.49,0
970,0.86,0.02,0.49,0
971,0.86,0.02,0.49,0
972,0.86,0.03,0.49,0
973,0.86,0.03,0.49,0
974,0.86,0.03,0.49,0
975,0.86,0.03,0.49,3
976,0.87,0.03,0.49,3
977,0.86,0.02,0.5,3
978,0.86,0.02,0.49,3
979,0.86,0.02,0.49,3
980,0.86,0.03,0.49,3
981,0.85,0.03,0.48,3
982,0.86,0.03,0.49,3
983,0.86,0.03,0.49,3
984,0.86,0.02,0.5,3
985,0.86,0.03,0.5,3
986,0.86,0.03,0.49,3
987,0.86,0.03,0.5,3
988,0.86,0.03,0.5,3
989,0.86,0.03,0.5,3
990,0.86,0.03,0.49,3
991,0.86,0.03,0.49,3
992,0.85,0.03,0.49,3
993,0.85,0.03,0.49,3
994,0.86,0.03,0.49,3
995,0.86,0.03,0.49,3
996,0.86,0.03,0.49,3
997,0.86,0.03,0.49,3
998,0.85,0.04,0.5,3
999,0.85,0.04,0.49,3
1000,0.85,0.03,0.51,3
1001,0.84,0.02,0.59,3
1002,0.92,-0.01,0.88,3
1003,0.93,-0.06,1.31,3
1004,1.23,-0.09,1.93,3
1005,1.27,-0.09,2.0,3
1006,1.4,-0.03,1.62,3
1007,1.57,0.01,1.05,3
1008,1.01,0.14,0.38,3
1009,0.79,0.21,0.13,3
1010,0.37,0.2,-0.06,3
1011,-0.04,0.22,0.15,3
1012,-0.5,0.3,0.67,3
1013,-0.81,0.31,1.13,3
1014,-0.78,0.11,1.15,3
1015,-0.38,-0.06,0.91,3
1016,0.16,-0.45,0.43,3
1017,0.45,-0.82,0.08,3
1018,0.67,-1.06,-0.08,3
1019,0.65,-1.22,-0.12,3
1020,0.59,-1.26,0.01,3
1021,0.47,-1.24,0.17,3
1022,0.46,-1.21,0.25,3
1023,0.46,-1.04,0.35,3
1024,0.46,-0.92,0.48,3
1025,0.29,-0.66,0.74,3
1026,-0.1,-0.47,0.86,3
1027,-0.28,-0.25,0.93,3
1028,-0.32,0.06,0.65,3
1029,-0.16,0.22,0.57,3
1030,-0.04,0.24,0.4,3
1031,0.21,0.04,0.91,3
1032,-0.09,0.07,1.58,3
1033,-0.01,0.14,2.26,3
1034,-0.12,0.1,1.99,3
1035,0.3,-0.19,1.41,3
1036,0.65,-0.4,0.6,3
1037,0.99,-0.81,0.02,3
1038,1.19,-1.17,-0.25,3
1039,0.95,-1.25,0.01,3
1040,0.81,-1.04,0.32,3
1041,0.84,-0.76,0.41,3
1042,0.65,-0.27,0.57,3
1043,0.43,0.08,0.68,3
1044,0.23,0.43,0.87,3
1045,0.3,0.5,0.87,3
1046,0.47,0.4,1.04,3
1047,0.47,0.25,1.22,3
1048,0.6,0.18,1.46,3
1049,0.58,0.14,1.42,3
1050,0.6,0.11,1.18,3
1051,0.72,0.02,0.8,3
1052,0.95,-0.11,0.44,3
1053,1.24,-0.39,0.18,3
1054,1.1,-0.36,0.23,3
1055,0.91,-0.22,0.47,3
1056,0.71,-0.06,0.66,3
1057,0.72,0.05,0.72,3
1058,0.78,0.13,0.71,3
1059,0.79,0.12,0.68,3
1060,0.81,0.11,0.69,3
1061,0.78,0.1,0.66,3
1062,0.76,0.1,0.66,3
1063,0.79,0.09,0.63,3
1064,0.81,0.05,0.59,3
1065,0.84,0.04,0.54,3
1066,0.89,0.03,0.52,3
1067,0.83,0.03,0.52,3
1068,0.85,0.04,0.53,3
1069,0.83,0.06,0.53,3
1070,0.84,0.07,0.52,3
1071,0.86,0.05,0.51,3
1072,0.87,0.04,0.52,3
1073,0.87,0.04,0.52,3
1074,0.85,0.01,0.52,3
1075,0.87,0.03,0.51,3
1076,0.84,0.02,0.49,3
1077,0.85,0.07,0.54,3
1078,0.85,0.02,0.54,3
1079,0.84,0.03,0.52,3
1080,0.8,0.02,0.5,3
1081,0.87,0.08,0.52,3
1082,0.85,0.01,0.55,3
1083,0.84,0.07,0.57,3
1084,0.89,0.0,0.56,3
1085,0.79,0.03,0.51,3
1086,0.84,0.08,0.49,3
1087,0.78,0.04,0.53,3
1088,0.86,0.03,0.51,3
1089,0.83,0.07,0.57,3
1090,0.84,0.08,0.61,3
1091,0.86,0.01,0.6,3
1092,0.89,0.04,0.5,3
1093,0.85,0.04,0.47,3
1094,0.85,0.05,0.49,3
1095,0.86,0.02,0.5,3
1096,0.83,0.05,0.49,3
1097,0.86,0.02,0.5,3
1098,0.85,0.04,0.51,3
1099,0.85,0.04,0.54,3
1100,0.85,0.03,0.53,0
1101,0.84,0.01,0.5,0
1102,0.84,0.01,0.53,0
1103,0.84,0.01,0.54,0
1104,0.85,0.01,0.54,0
1105,0.85,0.01,0.54,0
1106,0.84,0.01,0.54,0
1107,0.84,0.01,0.54,0
1108,0.85,0.02,0.56,0
1109,0.85,0.01,0.55,0
1110,0.85,0.01,0.54,0
1111,0.85,0.01,0.53,0
1112,0.85,0.01,0.53,0
1113,0.85,0.01,0.53,0
1114,0.84,0.01,0.52,0
1115,0.85,0.01,0.53,0
1116,0.85,0.01,0.52,0
1117,0.85,0.01,0.52,0
1118,0.85,0.01,0.53,0
1119,0.85,0.01,0.52,0
1120,0.85,0.0,0.52,0
1121,0.85,0.01,0.54,0
1122,0.86,0.0,0.53,0
1123,0.85,0.01,0.52,0
1124,0.85,0.02,0.51,0
1125,0.85,0.02,0.5,0
1126,0.85,0.02,0.5,0
1127,0.85,0.03,0.51,0
1128,0.85,0.02,0.52,0
1129,0.86,0.01,0.53,0
1130,0.85,0.01,0.52,0
1131,0.85,0.02,0.51,0
1132,0.85,0.02,0.5,0
1133,0.85,0.02,0.5,0
1134,0.86,0.02,0.53,0
1135,0.8,0.05,0.53,0
1136,0.82,0.07,0.49,0
1137,0.86,0.06,0.5,0
1138,0.86,0.02,0.51,0
1139,0.86,0.0,0.52,0
1140,0.85,0.0,0.53,0
1141,0.85,0.0,0.52,0
1142,0.87,0.01,0.51,0
1143,0.87,0.04,0.5,0
1144,0.87,0.04,0.5,0
1145,0.86,0.05,0.49,0
1146,0.85,0.05,0.49,0
1147,0.85,0.04,0.51,0
1148,0.86,0.04,0.51,0
1149,0.86,0.04,0.5,0
1150,0.85,0.04,0.5,0
1151,0.85,0.03,0.49,0
1152,0.85,0.02,0.49,0
1153,0.85,0.03,0.49,0
1154,0.86,0.04,0.5,0
1155,0.86,0.04,0.51,0
1156,0.85,0.03,0.5,0
1157,0.85,0.02,0.5,0
1158,0.86,0.03,0.5,0
1159,0.86,0.02,0.5,0
1160,0.86,0.03,0.5,0
1161,0.86,0.02,0.5,0
1162,0.85,0.03,0.49,0
1163,0.86,0.04,0.5,0
1164,0.86,0.04,0.5,0
1165,0.86,0.05,0.51,0
1166,0.86,0.04,0.51,0
1167,0.85,0.04,0.51,0
1168,0.85,0.04,0.51,0
1169,0.85,0.03,0.5,0
1170,0.85,0.03,0.51,0
1171,0.85,0.02,0.52,0
1172,0.85,0.02,0.52,0
1173,0.85,0.02,0.51,0
1174,0.85,0.01,0.51,0
1175,0.85,0.01,0.51,0
1176,0.85,0.01,0.51,0
1177,0.86,0.01,0.51,0
1178,0.86,0.02,0.52,0
1179,0.86,0.02,0.52,0
1180,0.85,0.02,0.52,0
1181,0.85,0.02,0.53,0
1182,0.85,0.01,0.52,0
1183,0.86,0.01,0.51,0
1184,0.85,0.02,0.52,0
1185,0.85,0.01,0.52,0
1186,0.85,0.01,0.52,0
1187,0.85,0.02,0.52,0
1188,0.85,0.01,0.53,0
1189,0.85,0.01,0.53,0
1190,0.85,0.01,0.53,0
1191,0.85,0.02,0.51,0
1192,0.85,0.02,0.52,0
1193,0.85,0.01,0.52,0
1194,0.86,0.01,0.52,0
1195,0.85,0.02,0.52,0
1196,0.84,0.02,0.52,0
1197,0.85,0.03,0.53,0
1198,0.85,0.02,0.52,0
1199,0.85,0.01,0.53,0
1200,0.85,0.0,0.53,0
1201,0.85,0.01,0.53,0
1202,0.85,0.01,0.52,0
1203,0.85,0.01,0.52,0
1204,0.85,0.01,0.52,0
1205,0.85,0.01,0.53,0
1206,0.85,0.02,0.52,0
1207,0.85,0.01,0.53,0
1208,0.85,0.01,0.52,0
1209,0.85,0.01,0.51,0
1210,0.85,0.01,0.52,0
1211,0.85,0.02,0.52,0
1212,0.85,0.01,0.52,0
1213,0.85,0.01,0.52,0
1214,0.85,0.01,0.52,0
1215,0.85,0.01,0.52,0
1216,0.85,0.01,0.52,0
1217,0.85,0.01,0.52,0
1218,0.85,0.02,0.52,0
1219,0.85,0.02,0.53,0
1220,0.85,0.02,0.52,0
1221,0.85,0.02,0.52,0
1222,0.85,0.03,0.53,0
1223,0.85,0.02,0.52,0
1224,0.85,0.02,0.52,0
1225,0.85,0.02,0.53,0
1226,0.85,0.02,0.52,0
1227,0.85,0.02,0.52,0
1228,0.85,0.02,0.52,0
1229,0.85,0.02,0.51,0
1230,0.85,0.02,0.52,0
1231,0.85,0.02,0.53,0
1232,0.85,0.02,0.52,0
1233,0.85,0.01,0.52,0
1234,0.85,0.02,0.53,0
1235,0.85,0.02,0.52,0
1236,0.85,0.01,0.52,0
1237,0.85,0.02,0.52,0
1238,0.85,0.02,0.52,0
1239,0.85,0.01,0.52,0
1240,0.85,0.01,0.52,0
1241,0.85,0.01,0.52,0
1242,0.85,0.01,0.52,0
1243,0.85,0.01,0.52,0
1244,0.84,0.01,0.51,0
1245,0.85,0.01,0.52,0
1246,0.85,0.01,0.52,0
1247,0.85,0.02,0.52,0
1248,0.85,0.01,0.52,0
1249,0.85,0.01,0.53,0
1250,0.85,0.01,0.52,0
1251,0.85,0.01,0.53,0
1252,0.85,0.01,0.53,0
1253,0.85,0.01,0.52,0
1254,0.85,0.01,0.52,0
1255,0.85,0.01,0.52,0
1256,0.85,0.01,0.52,0
1257,0.85,0.01,0.52,0
1258,0.85,0.01,0.52,0
1259,0.85,0.01,0.52,0
1260,0.85,0.01,0.52,0
1261,0.85,0.01,0.52,0
1262,0.85,0.01,0.52,0
1263,0.85,0.01,0.51,0
1264,0.85,0.01,0.51,0
1265,0.85,0.02,0.52,0
1266,0.85,0.01,0.52,0
1267,0.85,0.01,0.52,0
1268,0.85,0.01,0.52,0
1269,0.85,0.01,0.52,0
1270,0.86,0.01,0.52,0
1271,0.85,0.01,0.52,0
1272,0.85,0.01,0.52,0
1273,0.85,0.01,0.52,0
1274,0.85,0.01,0.51,0
1275,0.85,0.01,0.51,0
1276,0.85,0.02,0.52,0
1277,0.85,0.01,0.52,0
1278,0.85,0.01,0.51,0
1279,0.85,0.01,0.52,0
1280,0.86,0.01,0.52,0
1281,0.85,0.01,0.51,0
1282,0.85,0.01,0.51,0
1283,0.85,0.01,0.51,0
1284,0.85,0.01,0.51,0
1285,0.86,0.01,0.52,0
1286,0.85,0.01,0.51,0
1287,0.86,0.01,0.5,0
1288,0.85,0.02,0.5,0
1289,0.85,0.01,0.51,0
1290,0.85,0.01,0.51,0
1291,0.86,0.01,0.51,0
1292,0.86,0.01,0.52,0
1293,0.86,0.01,0.51,0
1294,0.85,0.01,0.51,0
1295,0.86,0.02,0.52,0
1296,0.85,0.01,0.5,0
1297,0.86,0.01,0.51,0
1298,0.85,0.01,0.51,0
1299,0.86,0.01,0.51,0
1300,0.86,0.02,0.51,0
1301,0.86,0.01,0.52,0
1302,0.85,0.01,0.51,0
1303,0.86,0.02,0.51,0
1304,0.85,0.01,0.51,0
1305,0.86,0.01,0.51,0
1306,0.85,0.01,0.51,0
1307,0.85,0.01,0.51,0
1308,0.85,0.01,0.51,0
1309,0.86,0.01,0.52,0
1310,0.86,0.01,0.51,0
1311,0.85,0.01,0.5,0
1312,0.86,0.01,0.51,0
1313,0.86,0.01,0.52,0
1314,0.84,0.03,0.52,0
1315,0.86,0.01,0.53,0
1316,0.85,0.03,0.53,0
1317,0.84,0.01,0.54,0
1318,0.84,0.03,0.54,0
1319,0.83,0.02,0.57,0
1320,0.86,-0.04,0.55,0
1321,0.78,0.02,0.54,0
1322,0.84,0.02,0.6,0
1323,0.85,0.02,0.59,0
1324,0.83,0.02,0.57,0
1325,0.8,-0.01,0.56,0
1326,0.84,0.05,0.54,0
1327,0.86,0.03,0.53,0
1328,0.82,0.02,0.53,0
1329,0.84,0.04,0.52,0
1330,0.83,0.02,0.53,0
1331,0.8,0.01,0.53,0
1332,0.85,0.02,0.55,0
1333,0.84,0.02,0.57,0
1334,0.84,0.02,0.55,0
1335,0.84,0.02,0.55,0
1336,0.85,0.02,0.54,0
1337,0.85,0.02,0.54,0
1338,0.84,0.02,0.54,0
1339,0.85,0.03,0.54,0
1340,0.84,0.03,0.54,0
1341,0.85,0.03,0.54,0
1342,0.84,0.03,0.54,0
1343,0.84,0.03,0.54,0
1344,0.85,0.03,0.54,0
1345,0.85,0.02,0.54,0
1346,0.85,0.03,0.54,0
1347,0.84,0.02,0.54,0
1348,0.85,0.03,0.54,0
1349,0.85,0.03,0.54,0
1350,0.85,0.03,0.54,3
1351,0.84,0.03,0.54,3
1352,0.84,0.03,0.54,3
1353,0.85,0.03,0.54,3
1354,0.84,0.04,0.54,3
1355,0.85,0.03,0.55,3
1356,0.84,0.02,0.54,3
1357,0.84,0.03,0.54,3
1358,0.85,0.03,0.54,3
1359,0.85,0.03,0.54,3
1360,0.84,0.03,0.54,3
1361,0.84,0.03,0.54,3
1362,0.85,0.03,0.55,3
1363,0.85,0.03,0.54,3
1364,0.85,0.03,0.55,3
1365,0.85,0.03,0.55,3
1366,0.84,0.03,0.54,3
1367,0.85,0.03,0.54,3
1368,0.85,0.03,0.53,3
1369,0.84,0.04,0.57,3
1370,0.75,0.04,0.54,3
1371,0.74,0.01,0.56,3
1372,0.85,0.0,0.65,3
1373,0.85,-0.1,1.11,3
1374,1.0,-0.11,1.71,3
1375,1.49,-0.08,2.16,3
1376,1.35,0.02,1.93,3
1377,1.49,0.1,1.43,3
1378,1.48,0.24,0.65,3
1379,0.84,0.32,0.21,3
1380,0.77,0.26,-0.01,3
1381,0.31,0.16,-0.02,3
1382,-0.26,0.23,0.61,3
1383,-1.1,0.47,1.14,3
1384,-1.11,0.39,1.43,3
1385,-0.7,0.45,1.02,3
1386,-0.06,0.22,0.45,3
1387,0.49,-0.23,-0.04,3
1388,1.52,-0.63,-0.3,3
1389,1.95,-0.91,-0.35,3
1390,1.6,-1.46,-0.27,3
1391,1.0,-1.35,-0.13,3
1392,0.74,-0.99,0.12,3
1393,0.45,-0.64,0.47,3
1394,0.3,-0.2,0.92,3
1395,0.21,0.0,1.37,3
1396,0.23,0.19,1.6,3
1397,0.23,0.51,1.81,3
1398,0.1,0.72,1.89,3
1399,-0.06,0.64,1.86,3
1400,0.01,0.48,1.62,3
1401,0.25,0.29,1.16,3
1402,0.99,-0.04,0.4,3
1403,1.5,-1.28,-0.37,3
1404,1.33,-1.06,-0.18,3
1405,0.74,-1.06,0.22,3
1406,0.4,-0.76,0.61,3
1407,0.38,-0.59,0.74,3
1408,0.48,-0.46,0.76,3
1409,0.54,-0.42,0.74,3
1410,0.52,-0.39,0.78,3
1411,0.49,-0.39,0.72,3
1412,0.52,-0.35,0.76,3
1413,0.48,-0.32,0.73,3
1414,0.58,-0.26,0.75,3
1415,0.55,-0.21,0.79,3
1416,0.6,-0.18,0.82,3
1417,0.6,-0.16,0.81,3
1418,0.57,-0.13,0.78,3
1419,0.68,-0.12,0.75,3
1420,0.74,-0.12,0.73,3
1421,0.75,-0.13,0.68,3
1422,0.77,-0.11,0.65,3
1423,0.74,-0.11,0.68,3
1424,0.83,-0.09,0.69,3
1425,0.9,-0.06,0.73,3
1426,0.9,-0.04,0.73,3
1427,0.9,-0.02,0.72,3
1428,0.85,0.0,0.67,3
1429,0.86,0.0,0.6,3
1430,0.86,0.0,0.58,3
1431,0.86,-0.01,0.54,3
1432,0.83,-0.01,0.48,3
1433,0.85,-0.01,0.52,3
1434,0.87,0.03,0.54,3
1435,0.85,-0.03,0.52,3
1436,0.77,0.04,0.49,3
1437,0.87,0.02,0.54,3
1438,0.78,0.0,0.54,3
1439,0.84,0.01,0.58,3
1440,0.82,0.0,0.55,3
1441,0.86,0.01,0.59,3
1442,0.84,0.04,0.61,3
1443,0.85,-0.04,0.58,3
1444,0.78,0.01,0.51,3
1445,0.81,0.04,0.5,3
1446,0.85,-0.02,0.57,3
1447,0.81,0.02,0.59,3
1448,0.84,0.0,0.55,3
1449,0.83,0.0,0.59,3
1450,0.83,0.0,0.57,3
1451,0.82,0.0,0.53,3
1452,0.86,0.06,0.52,3
1453,0.85,0.01,0.53,3
1454,0.85,0.0,0.53,3
1455,0.9,0.05,0.49,3
1456,0.86,-0.01,0.5,3
1457,0.86,0.0,0.53,3
1458,0.85,0.0,0.52,3
1459,0.86,-0.01,0.51,3
1460,0.86,-0.01,0.51,3
1461,0.86,0.0,0.5,3
1462,0.86,0.0,0.51,3
1463,0.85,-0.01,0.51,3
1464,0.85,-0.02,0.5,3
1465,0.85,-0.01,0.51,3
1466,0.85,0.0,0.51,3
1467,0.85,-0.01,0.51,3
1468,0.85,-0.02,0.5,3
1469,0.86,-0.02,0.49,3
1470,0.87,-0.01,0.51,3
1471,0.86,0.0,0.5,3
1472,0.85,-0.01,0.49,3
1473,0.86,-0.01,0.48,3
1474,0.86,-0.01,0.49,3
1475,0.86,-0.01,0.49,0
1476,0.87,-0.01,0.49,0
1477,0.86,-0.01,0.49,0
1478,0.86,-0.01,0.49,0
1479,0.86,-0.01,0.49,0
1480,0.87,-0.02,0.49,0
1481,0.87,-0.01,0.49,0
1482,0.87,-0.02,0.48,0
1483,0.86,-0.02,0.48,0
1484,0.86,-0.01,0.48,0
1485,0.86,-0.02,0.48,0
1486,0.86,-0.02,0.48,0
1487,0.87,-0.02,0.48,0
1488,0.86,-0.02,0.48,0
1489,0.87,-0.02,0.48,0
1490,0.86,-0.02,0.48,0
1491,0.86,-0.02,0.49,0
1492,0.87,-0.02,0.48,0
1493,0.87,-0.02,0.48,0
1494,0.87,-0.02,0.48,0
1495,0.86,-0.02,0.48,0
1496,0.86,-0.01,0.47,0
1497,0.87,-0.02,0.47,0
1498,0.86,-0.01,0.47,0
1499,0.86,-0.01,0.48,0
1500,0.87,-0.02,0.48,0
1501,0.87,-0.02,0.48,0
1502,0.87,-0.02,0.48,0
1503,0.87,-0.02,0.47,0
1504,0.87,-0.02,0.47,0
1505,0.87,-0.01,0.47,0
1506,0.87,-0.01,0.48,0
1507,0.86,-0.01,0.47,0
1508,0.87,-0.01,0.47,0
1509,0.88,-0.02,0.47,0
1510,0.87,-0.01,0.47,0
1511,0.88,-0.01,0.48,0
1512,0.88,-0.02,0.48,0
1513,0.87,-0.02,0.47,0
1514,0.88,-0.02,0.47,0
1515,0.88,-0.02,0.47,0
1516,0.87,-0.02,0.47,0
1517,0.86,-0.02,0.47,0
1518,0.87,-0.02,0.47,0
1519,0.87,-0.02,0.47,0
1520,0.88,-0.02,0.47,0
1521,0.88,-0.02,0.47,0
1522,0.87,-0.02,0.47,0
1523,0.87,-0.02,0.47,0
1524,0.87,-0.02,0.47,0
1525,0.87,-0.02,0.47,0
1526,0.86,-0.02,0.47,0
1527,0.88,-0.02,0.47,0
1528,0.88,-0.02,0.47,0
1529,0.88,-0.02,0.47,0
1530,0.87,-0.03,0.47,0
1531,0.87,-0.02,0.47,0
1532,0.87,-0.01,0.47,0
1533,0.87,-0.02,0.47,0
1534,0.87,-0.02,0.47,0
1535,0.87,-0.01,0.47,0
1536,0.87,-0.02,0.47,0
1537,0.88,-0.02,0.47,0
1538,0.87,-0.01,0.47,0
1539,0.88,-0.02,0.47,0
1540,0.88,-0.01,0.48,0
1541,0.87,-0.02,0.47,0
1542,0.87,-0.02,0.47,0
1543,0.87,-0.01,0.47,0
1544,0.87,-0.02,0.47,0
1545,0.87,-0.01,0.47,0
1546,0.87,-0.01,0.47,0
1547,0.87,-0.01,0.47,0
1548,0.87,-0.02,0.47,0
1549,0.88,-0.02,0.47,0
1550,0.87,-0.01,0.47,0
1551,0.87,-0.02,0.47,0
1552,0.87,-0.02,0.47,0
1553,0.87,-0.01,0.47,0
1554,0.88,-0.01,0.47,0
1555,0.88,-0.02,0.47,0
1556,0.88,-0.02,0.48,0
1557,0.88,-0.01,0.47,0
1558,0.87,-0.01,0.47,0
1559,0.87,-0.01,0.46,0
1560,0.88,-0.02,0.47,0
1561,0.87,-0.02,0.47,0
1562,0.88,-0.02,0.47,0
1563,0.88,-0.02,0.47,0
1564,0.87,-0.02,0.48,0
1565,0.87,-0.02,0.48,0
1566,0.88,-0.02,0.47,0
1567,0.88,-0.01,0.47,0
1568,0.87,-0.01,0.47,0
1569,0.86,-0.01,0.47,0
1570,0.88,-0.02,0.47,0
1571,0.87,-0.02,0.47,0
1572,0.87,-0.02,0.47,0
1573,0.88,-0.02,0.47,0
1574,0.87,-0.02,0.47,0
1575,0.87,-0.02,0.48,0
1576,0.87,-0.02,0.47,0
1577,0.87,-0.02,0.47,0
1578,0.88,-0.02,0.47,0
1579,0.87,-0.02,0.47,0
1580,0.88,-0.03,0.47,0
1581,0.87,-0.02,0.47,0
1582,0.87,-0.02,0.47,0
1583,0.87,-0.02,0.47,0
1584,0.87,-0.02,0.47,0
1585,0.87,-0.02,0.47,0
1586,0.87,-0.02,0.47,0
1587,0.88,-0.02,0.47,0
1588,0.88,-0.02,0.47,0
1589,0.87,-0.02,0.47,0
1590,0.87,-0.02,0.47,0
1591,0.87,-0.02,0.47,0
1592,0.87,-0.02,0.47,0
1593,0.88,-0.02,0.47,0
1594,0.87,-0.02,0.47,0
1595,0.88,-0.02,0.47,0
1596,0.88,-0.02,0.48,0
1597,0.87,-0.02,0.47,0
1598,0.87,-0.02,0.47,0
1599,0.87,-0.02,0.47,0
1600,0.87,-0.02,0.47,0
1601,0.88,-0.02,0.47,0
1602,0.87,-0.02,0.47,0
1603,0.87,-0.02,0.47,0
1604,0.88,-0.02,0.47,0
1605,0.87,-0.02,0.47,0
1606,0.87,-0.02,0.47,0
1607,0.87,-0.02,0.47,0
1608,0.87,-0.02,0.47,0
1609,0.87,-0.02,0.47,0
1610,0.87,-0.02,0.47,0
1611,0.88,-0.03,0.47,0
1612,0.87,-0.02,0.47,0
1613,0.88,-0.03,0.48,0
1614,0.87,-0.03,0.47,0
1615,0.87,-0.03,0.47,0
1616,0.88,-0.02,0.47,0
1617,0.88,-0.03,0.47,0
1618,0.87,-0.03,0.47,0
1619,0.88,-0.02,0.47,0
1620,0.88,-0.03,0.47,0
1621,0.87,-0.03,0.47,0
1622,0.88,-0.02,0.47,0
1623,0.88,-0.03,0.47,0
1624,0.87,-0.02,0.47,0
1625,0.88,-0.02,0.47,0
1626,0.88,-0.02,0.47,0
1627,0.87,-0.02,0.47,0
1628,0.87,-0.03,0.47,0
1629,0.87,-0.02,0.47,0
1630,0.88,-0.03,0.47,0
1631,0.87,-0.03,0.47,0
1632,0.87,-0.02,0.47,0
1633,0.88,-0.02,0.47,0
1634,0.89,-0.02,0.47,0
1635,0.87,-0.02,0.47,0
1636,0.89,-0.03,0.48,0
1637,0.87,-0.03,0.47,0
1638,0.86,0.0,0.49,0
1639,0.88,-0.03,0.48,0
1640,0.86,-0.01,0.51,0
1641,0.85,-0.02,0.51,0
1642,0.87,-0.01,0.49,0
1643,0.85,-0.04,0.49,0
1644,0.83,0.01,0.51,0
1645,0.88,-0.03,0.52,0
1646,0.86,-0.02,0.51,0
1647,0.85,-0.03,0.53,0
1648,0.86,-0.01,0.53,0
1649,0.86,-0.01,0.49,0
1650,0.86,-0.02,0.48,0
1651,0.86,-0.02,0.49,0
1652,0.86,-0.01,0.48,0
1653,0.84,-0.05,0.47,0
1654,0.87,-0.02,0.48,0
1655,0.86,-0.01,0.49,0
1656,0.86,-0.01,0.49,0
1657,0.86,-0.01,0.5,0
1658,0.86,-0.01,0.49,0
1659,0.86,-0.01,0.48,0
1660,0.86,-0.01,0.49,0
1661,0.86,0.0,0.49,0
1662,0.86,-0.01,0.48,0
1663,0.86,-0.01,0.49,0
1664,0.86,-0.01,0.49,0
1665,0.87,-0.01,0.49,0
1666,0.86,-0.01,0.49,0
1667,0.86,-0.01,0.49,0
1668,0.86,0.0,0.49,0
1669,0.86,0.0,0.48,0
1670,0.86,-0.01,0.49,0
1671,0.86,0.0,0.49,0
1672,0.86,-0.01,0.49,0
1673,0.86,-0.01,0.49,0
1674,0.86,0.0,0.49,0
1675,0.86,0.0,0.49,3
1676,0.87,0.0,0.49,3
1677,0.86,0.0,0.5,3
1678,0.86,0.0,0.49,3
1679,0.86,0.0,0.49,3
1680,0.86,-0.01,0.49,3
1681,0.86,-0.01,0.49,3
1682,0.86,-0.01,0.49,3
1683,0.86,-0.01,0.49,3
1684,0.86,0.0,0.5,3
1685,0.86,-0.01,0.49,3
1686,0.86,0.0,0.49,3
1687,0.86,0.0,0.5,3
1688,0.86,0.0,0.49,3
1689,0.86,0.0,0.49,3
1690,0.86,0.0,0.5,3
1691,0.86,0.0,0.49,3
1692,0.86,0.01,0.49,3
1693,0.87,0.02,0.51,3
1694,0.89,0.02,0.52,3
1695,0.86,0.01,0.56,3
1696,0.88,0.03,0.55,3
1697,0.82,0.06,0.58,3
1698,0.84,0.09,0.5,3
1699,0.83,0.07,0.49,3
1700,0.8,0.12,0.54,3
1701,0.76,0.33,0.67,3
1702,0.68,0.41,0.77,3
1703,0.83,0.43,0.86,3
1704,0.89,0.32,1.01,3
1705,0.92,0.21,1.14,3
1706,0.94,0.03,1.2,3
1707,0.96,-0.18,1.07,3
1708,0.97,-0.29,0.96,3
1709,0.87,-0.38,0.83,3
1710,0.76,-0.26,0.72,3
1711,0.72,-0.25,0.61,3
1712,0.53,-0.19,0.59,3
1713,0.42,-0.07,0.66,3
1714,0.39,0.09,0.77,3
1715,0.08,0.28,0.99,3
1716,-0.09,0.48,1.17,3
1717,-0.08,0.6,1.29,3
1718,-0.29,0.7,1.26,3
1719,-0.34,0.65,1.19,3
1720,-0.41,0.56,1.12,3
1721,-0.43,0.46,0.99,3
1722,-0.36,0.34,0.9,3
1723,-0.28,0.2,0.73,3
1724,-0.15,0.0,0.58,3
1725,-0.03,-0.22,0.5,3
1726,0.13,-0.42,0.41,3
1727,0.27,-0.82,0.46,3
1728,0.29,-0.94,0.47,3
1729,0.2,-1.12,0.56,3
1730,0.26,-1.23,0.7,3
1731,0.26,-1.18,0.73,3
1732,0.27,-1.09,0.75,3
1733,0.23,-0.94,0.63,3
1734,0.23,-0.81,0.49,3
1735,0.19,-0.59,0.47,3
1736,0.09,-0.32,0.45,3
1737,0.01,-0.11,0.51,3
1738,-0.11,0.16,0.71,3
1739,-0.29,0.4,0.84,3
1740,-0.41,0.56,1.21,3
1741,-0.58,0.57,1.34,3
1742,-0.48,0.47,1.15,3
1743,-0.12,0.25,1.02,3
1744,0.2,0.1,0.84,3
1745,0.41,-0.06,0.76,3
1746,0.67,-0.24,0.75,3
1747,0.74,-0.44,0.74,3
1748,0.92,-0.53,0.74,3
1749,1.11,-0.55,0.86,3
1750,0.97,-0.45,0.98,3
1751,0.95,-0.39,1.1,3
1752,0.84,-0.13,1.1,3
1753,0.85,0.0,1.07,3
1754,0.83,0.24,0.97,3
1755,0.68,0.4,0.87,3
1756,0.63,0.41,0.82,3
1757,0.61,0.3,0.73,3
1758,0.7,0.22,0.68,3
1759,0.7,0.16,0.65,3
1760,0.75,0.07,0.65,3
1761,0.83,0.01,0.64,3
1762,0.76,-0.03,0.65,3
1763,0.79,-0.03,0.64,3
1764,0.73,0.02,0.65,3
1765,0.77,0.02,0.64,3
1766,0.8,0.02,0.61,3
1767,0.79,0.01,0.62,3
1768,0.8,0.01,0.6,3
1769,0.78,0.02,0.61,3
1770,0.8,0.01,0.63,3
1771,0.79,0.04,0.61,3
1772,0.8,0.01,0.61,3
1773,0.79,0.03,0.61,3
1774,0.79,0.02,0.6,3
1775,0.73,0.02,0.57,3
1776,0.74,0.04,0.68,3
1777,0.72,0.03,0.65,3
1778,0.76,0.06,0.74,3
1779,0.74,-0.02,0.68,3
1780,0.74,0.05,0.68,3
1781,0.73,0.04,0.72,3
1782,0.73,0.03,0.72,3
1783,0.76,0.03,0.73,3
1784,0.73,-0.01,0.61,3
1785,0.76,0.09,0.66,3
1786,0.75,0.0,0.64,3
1787,0.73,0.07,0.66,3
1788,0.72,0.04,0.7,3
1789,0.72,0.07,0.73,3
1790,0.75,0.0,0.73,3
1791,0.74,0.04,0.65,3
1792,0.81,0.06,0.6,3
1793,0.69,0.02,0.58,3
1794,0.79,0.04,0.6,3
1795,0.77,0.02,0.6,3
1796,0.78,0.03,0.61,3
1797,0.78,0.03,0.62,3
1798,0.78,0.03,0.62,3
1799,0.78,0.03,0.62,3
1800,0.79,0.02,0.61,0
1801,0.77,0.03,0.6,0
1802,0.79,0.03,0.6,0
1803,0.79,0.03,0.6,0
1804,0.79,0.03,0.61,0
1805,0.79,0.03,0.6,0
1806,0.78,0.03,0.6,0
1807,0.79,0.03,0.6,0
1808,0.8,0.02,0.6,0
1809,0.8,0.03,0.6,0
1810,0.79,0.02,0.6,0
1811,0.79,0.02,0.6,0
1812,0.81,0.03,0.59,0
1813,0.8,0.02,0.59,0
1814,0.81,0.02,0.59,0
1815,0.8,0.02,0.59,0
1816,0.81,0.02,0.59,0
1817,0.82,0.02,0.59,0
1818,0.8,0.02,0.59,0
1819,0.81,0.02,0.59,0
1820,0.82,0.02,0.58,0
1821,0.8,0.03,0.58,0
1822,0.82,0.02,0.59,0
1823,0.82,0.02,0.59,0
1824,0.81,0.03,0.59,0
1825,0.82,0.03,0.59,0
1826,0.82,0.03,0.58,0
1827,0.81,0.02,0.59,0
1828,0.81,0.03,0.59,0
1829,0.83,0.03,0.59,0
1830,0.81,0.02,0.58,0
1831,0.8,0.02,0.58,0
1832,0.82,0.02,0.58,0
1833,0.82,0.02,0.57,0
1834,0.8,0.02,0.57,0
1835,0.82,0.01,0.58,0
1836,0.81,0.02,0.59,0
1837,0.82,0.03,0.58,0
1838,0.82,0.02,0.58,0
1839,0.82,0.02,0.57,0
1840,0.83,0.02,0.56,0
1841,0.83,0.02,0.58,0
1842,0.82,0.02,0.58,0
1843,0.82,0.03,0.58,0
1844,0.83,0.01,0.58,0
1845,0.82,0.01,0.58,0
1846,0.82,0.02,0.58,0
1847,0.84,0.02,0.58,0
1848,0.82,0.01,0.58,0
1849,0.82,0.01,0.58,0
1850,0.82,0.01,0.57,0
1851,0.83,0.01,0.59,0
1852,0.83,0.01,0.57,0
1853,0.82,0.01,0.58,0
1854,0.82,0.01,0.58,0
1855,0.82,0.02,0.58,0
1856,0.8,0.01,0.58,0
1857,0.82,0.01,0.57,0
1858,0.83,0.01,0.58,0
1859,0.82,0.01,0.58,0
1860,0.83,0.01,0.58,0
1861,0.83,0.01,0.58,0
1862,0.82,0.01,0.58,0
1863,0.82,0.01,0.57,0
1864,0.83,0.01,0.57,0
1865,0.83,0.01,0.56,0
1866,0.83,0.02,0.57,0
1867,0.83,0.01,0.57,0
1868,0.82,0.01,0.57,0
1869,0.84,0.01,0.57,0
1870,0.83,0.01,0.57,0
1871,0.83,0.01,0.56,0
1872,0.83,0.01,0.56,0
1873,0.84,0.01,0.56,0
1874,0.84,0.01,0.56,0
1875,0.83,0.01,0.57,0
1876,0.84,0.01,0.56,0
1877,0.84,0.01,0.56,0
1878,0.84,0.0,0.55,0
1879,0.84,0.0,0.56,0
1880,0.85,0.0,0.57,0
1881,0.85,0.0,0.56,0
1882,0.85,0.0,0.55,0
1883,0.85,0.0,0.55,0
1884,0.84,0.0,0.54,0
1885,0.84,0.01,0.54,0
1886,0.84,0.01,0.53,0
1887,0.85,0.0,0.54,0
1888,0.84,0.0,0.54,0
1889,0.84,0.0,0.54,0
1890,0.84,0.0,0.54,0
1891,0.85,0.0,0.55,0
1892,0.85,0.0,0.54,0
1893,0.84,0.01,0.54,0
1894,0.85,0.0,0.54,0
1895,0.85,0.0,0.54,0
1896,0.85,0.0,0.55,0
1897,0.84,0.01,0.54,0
1898,0.85,0.0,0.54,0
1899,0.85,0.0,0.54,0
1900,0.85,0.0,0.53,0
1901,0.85,0.0,0.54,0
1902,0.85,0.0,0.54,0
1903,0.85,0.0,0.54,0
1904,0.85,0.0,0.54,0
1905,0.85,0.0,0.54,0
1906,0.85,0.0,0.54,0
1907,0.85,0.0,0.54,0
1908,0.85,0.0,0.54,0
1909,0.85,0.0,0.54,0
1910,0.85,0.0,0.55,0
1911,0.85,0.0,0.55,0
1912,0.85,0.0,0.55,0
1913,0.85,0.0,0.54,0
1914,0.85,0.0,0.54,0
1915,0.84,0.0,0.54,0
1916,0.84,0.0,0.54,0
1917,0.84,0.0,0.55,0
1918,0.85,0.0,0.55,0
1919,0.85,0.0,0.55,0
1920,0.84,0.0,0.55,0
1921,0.84,0.0,0.55,0
1922,0.85,0.0,0.55,0
1923,0.84,0.0,0.55,0
1924,0.84,0.0,0.54,0
1925,0.85,0.0,0.55,0
1926,0.85,0.0,0.55,0
1927,0.84,0.0,0.55,0
1928,0.84,0.0,0.54,0
1929,0.84,0.0,0.55,0
1930,0.84,0.0,0.54,0
1931,0.85,0.0,0.55,0
1932,0.84,0.0,0.55,0
1933,0.85,0.0,0.55,0
1934,0.84,0.0,0.55,0
1935,0.85,-0.01,0.55,0
1936,0.84,0.0,0.55,0
1937,0.84,0.0,0.55,0
1938,0.84,0.0,0.55,0
1939,0.85,0.0,0.55,0
1940,0.85,0.0,0.55,0
1941,0.84,0.0,0.55,0
1942,0.83,0.0,0.56,0
1943,0.84,0.0,0.54,0
1944,0.85,0.0,0.55,0
1945,0.84,0.0,0.55,0
1946,0.84,0.0,0.55,0
1947,0.84,0.0,0.55,0
1948,0.84,0.0,0.55,0
1949,0.84,0.0,0.56,0
1950,0.84,0.0,0.56,0
1951,0.84,0.0,0.56,0
1952,0.83,0.0,0.55,0
1953,0.84,0.0,0.55,0
1954,0.84,0.0,0.55,0
1955,0.85,0.0,0.55,0
1956,0.85,0.0,0.56,0
1957,0.84,0.0,0.56,0
1958,0.84,0.0,0.56,0
1959,0.84,0.0,0.55,0
1960,0.84,0.01,0.55,0
1961,0.84,0.0,0.55,0
1962,0.84,0.0,0.55,0
1963,0.84,0.0,0.55,0
1964,0.84,0.0,0.56,0
1965,0.84,0.0,0.56,0
1966,0.83,0.0,0.56,0
1967,0.84,0.01,0.56,0
1968,0.83,0.0,0.56,0
1969,0.83,0.0,0.58,0
1970,0.83,0.0,0.57,0
1971,0.82,0.0,0.58,0
1972,0.84,0.01,0.59,0
1973,0.83,0.01,0.59,0
1974,0.82,0.0,0.6,0
1975,0.8,0.0,0.58,0
1976,0.77,0.04,0.6,0
1977,0.79,0.01,0.6,0
1978,0.78,0.0,0.57,0
1979,0.8,0.01,0.61,0
1980,0.8,0.01,0.62,0
1981,0.8,-0.02,0.62,0
1982,0.77,0.01,0.59,0
1983,0.84,0.01,0.6,0
1984,0.79,0.0,0.6,0
1985,0.8,0.0,0.58,0
1986,0.82,0.01,0.56,0
1987,0.79,0.0,0.57,0
1988,0.84,0.0,0.57,0
1989,0.82,0.0,0.58,0
1990,0.82,0.0,0.59,0
1991,0.84,0.0,0.59,0
1992,0.81,0.0,0.59,0
1993,0.81,0.0,0.58,0
1994,0.83,0.0,0.57,0
1995,0.81,0.0,0.58,0
1996,0.82,0.01,0.58,0
1997,0.81,0.0,0.57,0
1998,0.82,0.0,0.58,0
1999,0.83,0.0,0.58,0
2000,0.81,0.0,0.58,3
2001,0.79,0.01,0.56,3
2002,0.83,0.0,0.58,3
2003,0.83,0.0,0.58,3
2004,0.81,0.0,0.57,3
2005,0.83,0.0,0.57,3
2006,0.83,0.01,0.57,3
2007,0.82,0.01,0.57,3
2008,0.83,0.0,0.58,3
2009,0.83,0.0,0.56,3
2010,0.83,0.01,0.58,3
2011,0.83,0.0,0.57,3
2012,0.82,0.01,0.57,3
2013,0.84,0.0,0.57,3
2014,0.82,0.01,0.58,3
2015,0.83,0.0,0.57,3
2016,0.83,0.0,0.57,3
2017,0.83,0.01,0.56,3
2018,0.83,0.0,0.57,3
2019,0.82,0.0,0.56,3
2020,0.82,-0.01,0.58,3
2021,0.8,0.0,0.61,3
2022,0.76,0.0,0.58,3
2023,0.8,0.02,0.75,3
2024,0.76,0.0,1.11,3
2025,1.31,-0.06,1.75,3
2026,1.14,-0.06,1.86,3
2027,1.44,-0.07,1.7,3
2028,1.6,-0.1,1.36,3
2029,1.15,-0.01,1.0,3
2030,0.95,-0.01,0.59,3
2031,0.63,0.1,0.13,3
2032,0.33,0.13,-0.2,3
2033,0.25,0.12,-0.38,3
2034,-0.06,0.11,-0.5,3
2035,-0.27,0.02,-0.44,3
2036,-0.18,0.04,-0.31,3
2037,0.06,0.02,-0.14,3
2038,0.3,0.12,0.39,3
2039,0.41,0.12,0.59,3
2040,1.03,0.21,1.09,3
2041,1.06,0.32,0.93,3
2042,1.54,0.42,1.49,3
2043,1.45,0.68,1.87,3
2044,1.34,0.67,2.07,3
2045,1.07,0.51,1.81,3
2046,0.97,0.48,1.54,3
2047,1.19,0.5,1.49,3
2048,1.39,0.59,1.51,3
2049,1.57,0.5,1.41,3
2050,1.46,0.52,1.05,3
2051,0.87,0.52,0.6,3
2052,0.95,0.47,0.29,3
2053,0.12,0.24,-0.09,3
2054,0.15,-0.11,-0.22,3
2055,-0.09,-0.31,-0.28,3
2056,-0.39,-0.4,-0.27,3
2057,-0.45,-0.35,-0.25,3
2058,-0.56,-0.27,-0.22,3
2059,-0.38,-0.22,-0.12,3
2060,-0.24,-0.07,-0.02,3
2061,0.14,-0.2,0.23,3
2062,0.22,-0.09,0.41,3
2063,0.67,-0.14,0.76,3
2064,0.74,0.09,1.2,3
2065,0.87,-0.02,1.06,3
2066,1.23,0.13,1.53,3
2067,0.99,0.23,1.42,3
2068,1.33,0.23,1.62,3
2069,0.82,0.3,1.43,3
2070,0.92,0.24,1.19,3
2071,0.78,0.28,0.93,3
2072,0.68,0.24,0.77,3
2073,0.76,0.13,0.67,3
2074,0.72,0.12,0.57,3
2075,0.75,0.11,0.56,3
2076,0.82,0.03,0.53,3
2077,0.84,0.04,0.57,3
2078,0.76,0.03,0.56,3
2079,0.85,0.0,0.56,3
2080,0.86,0.01,0.54,3
2081,0.85,0.0,0.52,3
2082,0.86,0.0,0.51,3
2083,0.84,0.01,0.51,3
2084,0.87,0.01,0.52,3
2085,0.85,0.01,0.54,3
2086,0.86,0.02,0.53,3
2087,0.85,0.01,0.53,3
2088,0.85,0.01,0.5,3
2089,0.85,0.02,0.5,3
2090,0.85,0.01,0.52,3
2091,0.86,0.01,0.51,3
2092,0.86,0.02,0.52,3
2093,0.85,0.01,0.5,3
2094,0.85,0.01,0.53,3
2095,0.84,0.01,0.55,3
2096,0.85,0.01,0.55,3
2097,0.85,0.01,0.54,3
2098,0.85,0.01,0.53,3
2099,0.85,0.01,0.53,3
2100,0.85,0.01,0.54,3
2101,0.85,0.01,0.53,3
2102,0.85,0.01,0.5,3
2103,0.85,0.02,0.57,3
2104,0.83,0.03,0.52,3
2105,0.83,0.0,0.52,3
2106,0.84,0.02,0.57,3
2107,0.83,0.01,0.59,3
2108,0.83,0.02,0.6,3
2109,0.85,-0.01,0.49,3
2110,0.8,0.02,0.47,3
2111,0.85,0.04,0.57,3
2112,0.85,0.01,0.6,3
2113,0.85,0.03,0.59,3
2114,0.8,0.05,0.58,3
2115,0.81,-0.01,0.57,3
2116,0.85,0.03,0.49,3
2117,0.84,0.04,0.49,3
2118,0.84,0.08,0.48,3
2119,0.87,0.05,0.5,3
2120,0.86,0.02,0.49,3
2121,0.87,0.03,0.5,3
2122,0.86,0.04,0.51,3
2123,0.87,0.03,0.52,3
2124,0.87,0.02,0.51,3
2125,0.86,0.02,0.51,0
2126,0.85,0.03,0.51,0
2127,0.86,0.02,0.5,0
2128,0.86,0.02,0.49,0
2129,0.85,0.02,0.5,0
2130,0.85,0.02,0.49,0
2131,0.86,0.02,0.49,0
2132,0.86,0.01,0.48,0
2133,0.86,0.02,0.49,0
2134,0.86,0.02,0.5,0
2135,0.86,0.01,0.49,0
2136,0.86,0.01,0.49,0
2137,0.87,0.01,0.49,0
2138,0.86,0.01,0.48,0
2139,0.86,0.02,0.48,0
2140,0.86,0.01,0.48,0
2141,0.87,0.01,0.48,0
2142,0.87,0.01,0.48,0
2143,0.87,0.01,0.48,0
2144,0.87,0.01,0.48,0
2145,0.87,0.01,0.48,0
2146,0.86,0.01,0.47,0
2147,0.88,0.01,0.48,0
2148,0.86,0.01,0.48,0
2149,0.87,0.01,0.48,0
2150,0.87,0.01,0.48,0
2151,0.87,0.01,0.48,0
2152,0.87,0.01,0.48,0
2153,0.86,0.01,0.48,0
2154,0.87,0.01,0.48,0
2155,0.87,0.01,0.48,0
2156,0.86,0.01,0.48,0
2157,0.87,0.01,0.48,0
2158,0.86,0.02,0.48,0
2159,0.87,0.01,0.48,0
2160,0.86,0.01,0.48,0
2161,0.87,0.01,0.48,0
2162,0.87,0.02,0.49,0
2163,0.86,0.01,0.48,0
2164,0.86,0.01,0.48,0
2165,0.87,0.01,0.48,0
2166,0.86,0.01,0.48,0
2167,0.87,0.01,0.48,0
2168,0.87,0.01,0.48,0
2169,0.86,0.01,0.48,0
2170,0.86,0.01,0.48,0
2171,0.86,0.01,0.48,0
2172,0.87,0.01,0.48,0
2173,0.87,0.01,0.49,0
2174,0.87,0.01,0.49,0
2175,0.86,0.01,0.49,0
2176,0.86,0.01,0.48,0
2177,0.86,0.01,0.48,0
2178,0.86,0.02,0.48,0
2179,0.86,0.01,0.48,0
2180,0.86,0.01,0.49,0
2181,0.86,0.01,0.49,0
2182,0.87,0.01,0.49,0
2183,0.86,0.01,0.49,0
2184,0.86,0.01,0.49,0
2185,0.86,0.01,0.48,0
2186,0.86,0.01,0.48,0
2187,0.86,0.01,0.48,0
2188,0.86,0.01,0.48,0
2189,0.86,0.01,0.48,0
2190,0.87,0.01,0.49,0
2191,0.86,0.01,0.49,0
2192,0.86,0.01,0.49,0
2193,0.87,0.02,0.49,0
2194,0.87,0.01,0.48,0
2195,0.86,0.01,0.48,0
2196,0.86,0.01,0.48,0
2197,0.86,0.01,0.48,0
2198,0.86,0.01,0.49,0
2199,0.87,0.01,0.49,0
2200,0.87,0.01,0.49,0
2201,0.86,0.01,0.49,0
2202,0.86,0.01,0.48,0
2203,0.86,0.01,0.48,0
2204,0.86,0.01,0.48,0
2205,0.86,0.02,0.48,0
2206,0.87,0.01,0.49,0
2207,0.86,0.0,0.48,0
2208,0.86,0.01,0.48,0
2209,0.86,0.01,0.48,0
2210,0.87,0.01,0.48,0
2211,0.86,0.01,0.48,0
2212,0.86,0.01,0.48,0
2213,0.86,0.01,0.48,0
2214,0.87,0.01,0.48,0
2215,0.87,0.01,0.48,0
2216,0.86,0.01,0.48,0
2217,0.87,0.01,0.48,0
2218,0.86,0.01,0.48,0
2219,0.86,0.01,0.48,0
2220,0.87,0.01,0.48,0
2221,0.86,0.01,0.48,0
2222,0.87,0.0,0.49,0
2223,0.86,0.0,0.49,0
2224,0.86,0.0,0.48,0
2225,0.86,0.01,0.48,0
2226,0.87,0.0,0.48,0
2227,0.86,0.01,0.48,0
2228,0.86,0.0,0.48,0
2229,0.87,0.0,0.48,0
2230,0.87,0.01,0.49,0
2231,0.87,0.01,0.48,0
2232,0.86,0.0,0.48,0
2233,0.86,0.0,0.48,0
2234,0.86,0.01,0.48,0
2235,0.87,0.0,0.48,0
2236,0.86,0.01,0.48,0
2237,0.86,0.01,0.48,0
2238,0.87,0.0,0.48,0
2239,0.86,0.0,0.48,0
2240,0.87,0.01,0.49,0
2241,0.86,0.01,0.49,0
2242,0.86,0.01,0.48,0
2243,0.86,0.01,0.48,0
2244,0.86,0.01,0.48,0
2245,0.86,0.01,0.48,0
2246,0.86,0.01,0.48,0
2247,0.87,0.0,0.49,0
2248,0.87,0.0,0.49,0
2249,0.87,0.01,0.49,0
2250,0.87,0.0,0.49,0
2251,0.87,0.01,0.5,0
2252,0.86,0.01,0.49,0
2253,0.85,0.0,0.48,0
2254,0.85,0.02,0.49,0
2255,0.85,0.0,0.5,0
2256,0.87,0.0,0.5,0
2257,0.85,0.02,0.53,0
2258,0.86,0.0,0.51,0
2259,0.84,0.02,0.53,0
2260,0.85,-0.01,0.52,0
2261,0.87,0.02,0.53,0
2262,0.8,-0.01,0.56,0
2263,0.85,0.02,0.53,0
2264,0.79,0.02,0.58,0
2265,0.82,0.05,0.58,0
2266,0.8,-0.02,0.59,0
2267,0.87,0.01,0.52,0
2268,0.84,0.01,0.51,0
2269,0.85,0.0,0.54,0
2270,0.85,0.0,0.53,0
2271,0.85,0.02,0.52,0
2272,0.85,0.01,0.52,0
2273,0.85,0.0,0.53,0
2274,0.85,0.01,0.53,0
2275,0.85,0.0,0.53,3
2276,0.85,0.01,0.53,3
2277,0.85,0.01,0.52,3
2278,0.85,0.01,0.53,3
2279,0.85,0.01,0.53,3
2280,0.85,0.01,0.53,3
2281,0.85,0.01,0.54,3
2282,0.85,0.01,0.53,3
2283,0.85,0.01,0.53,3
2284,0.85,0.01,0.52,3
2285,0.85,0.01,0.52,3
2286,0.85,0.01,0.52,3
2287,0.85,0.01,0.53,3
2288,0.85,0.01,0.52,3
2289,0.86,0.01,0.53,3
2290,0.85,0.01,0.52,3
2291,0.85,0.0,0.53,3
2292,0.85,0.04,0.54,3
2293,0.86,0.01,0.58,3
2294,0.85,0.0,0.72,3
2295,0.86,-0.06,1.09,3
2296,1.13,-0.12,1.68,3
2297,1.42,-0.12,1.95,3
2298,2.04,-0.25,1.86,3
2299,1.96,-0.2,1.3,3
2300,1.57,0.03,0.93,3
2301,1.19,0.12,0.47,3
2302,0.53,0.38,-0.06,3
2303,-0.05,0.4,-0.39,3
2304,-0.16,0.36,-0.68,3
2305,-0.41,0.35,-0.8,3
2306,-0.41,0.42,-0.75,3
2307,-0.05,0.51,-0.6,3
2308,0.1,0.6,-0.28,3
2309,0.82,0.5,0.4,3
2310,1.28,0.84,1.2,3
2311,1.95,0.86,1.65,3
2312,2.24,1.05,2.85,3
2313,1.53,1.25,3.45,3
2314,1.32,0.97,2.61,3
2315,1.33,0.85,1.62,3
2316,1.82,0.68,1.26,3
2317,1.57,0.49,1.1,3
2318,0.63,0.57,0.67,3
2319,0.83,0.74,0.25,3
2320,0.23,0.47,-0.68,3
2321,0.1,-0.01,-1.03,3
2322,-0.09,-0.03,-1.02,3
2323,-0.3,0.0,-0.93,3
2324,-0.21,0.1,-0.8,3
2325,-0.18,0.23,-0.58,3
2326,0.2,0.52,-0.14,3
2327,0.51,0.52,0.74,3
2328,1.29,0.92,1.0,3
2329,1.52,1.09,1.9,3
2330,1.41,1.39,2.85,3
2331,0.84,1.48,3.48,3
2332,0.54,1.47,2.94,3
2333,0.84,1.23,2.15,3
2334,1.51,1.01,1.9,3
2335,1.83,0.78,1.57,3
2336,1.16,0.69,0.94,3
2337,0.6,0.94,0.19,3
2338,0.48,0.75,-0.46,3
2339,-0.3,0.09,-0.95,3
2340,-0.14,-0.04,-0.91,3
2341,-0.53,-0.16,-0.87,3
2342,-0.44,-0.1,-0.69,3
2343,-0.41,0.01,-0.57,3
2344,-0.36,0.1,-0.44,3
2345,0.04,0.16,-0.13,3
2346,0.65,0.06,0.59,3
2347,1.09,0.09,1.29,3
2348,1.04,0.18,1.49,3
2349,1.34,0.05,1.72,3
2350,1.12,0.15,1.68,3
2351,1.03,0.23,1.76,3
2352,0.76,0.26,1.58,3
2353,0.7,0.21,1.32,3
2354,0.67,0.25,0.99,3
2355,0.69,0.23,0.9,3
2356,0.72,0.21,0.83,3
2357,0.69,0.15,0.75,3
2358,0.67,0.11,0.67,3
2359,0.71,0.1,0.64,3
2360,0.74,0.07,0.6,3
2361,0.75,0.07,0.65,3
2362,0.8,0.05,0.65,3
2363,0.73,0.06,0.65,3
2364,0.76,0.04,0.66,3
2365,0.76,0.04,0.65,3
2366,0.74,0.08,0.69,3
2367,0.77,0.08,0.66,3
2368,0.76,0.09,0.66,3
2369,0.79,0.06,0.62,3
2370,0.77,0.06,0.61,3
2371,0.75,0.07,0.63,3
2372,0.75,0.07,0.64,3
2373,0.75,0.08,0.65,3
2374,0.77,0.06,0.66,3
2375,0.73,0.07,0.67,3
2376,0.77,0.05,0.68,3
2377,0.73,0.07,0.65,3
2378,0.77,0.02,0.64,3
2379,0.71,0.1,0.63,3
2380,0.75,0.1,0.67,3
2381,0.79,0.07,0.64,3
2382,0.75,0.07,0.67,3
2383,0.74,0.06,0.66,3
2384,0.73,0.08,0.62,3
2385,0.79,0.01,0.63,3
2386,0.77,0.11,0.66,3
2387,0.77,0.07,0.69,3
2388,0.75,0.1,0.66,3
2389,0.75,0.06,0.67,3
2390,0.81,0.1,0.62,3
2391,0.78,0.06,0.59,3
2392,0.75,0.06,0.61,3
2393,0.72,0.08,0.58,3
2394,0.81,0.05,0.59,3
2395,0.77,0.07,0.6,3
2396,0.8,0.06,0.6,3
2397,0.78,0.07,0.61,3
2398,0.76,0.07,0.61,3
2399,0.8,0.05,0.62,3
2400,0.8,0.07,0.61,0
2401,0.8,0.07,0.6,0
2402,0.79,0.07,0.6,0
2403,0.79,0.07,0.6,0
2404,0.79,0.06,0.6,0
2405,0.79,0.05,0.59,0
2406,0.78,0.05,0.6,0
2407,0.8,0.05,0.6,0
2408,0.8,0.05,0.6,0
2409,0.8,0.04,0.6,0
2410,0.78,0.04,0.6,0
2411,0.79,0.04,0.6,0
2412,0.79,0.04,0.6,0
2413,0.78,0.04,0.59,0
2414,0.79,0.03,0.59,0
2415,0.8,0.04,0.59,0
2416,0.79,0.03,0.59,0
2417,0.81,0.03,0.6,0
2418,0.8,0.03,0.6,0
2419,0.8,0.04,0.6,0
2420,0.8,0.03,0.6,0
2421,0.8,0.03,0.6,0
2422,0.79,0.03,0.6,0
2423,0.82,0.04,0.6,0
2424,0.8,0.04,0.59,0
2425,0.78,0.03,0.59,0
2426,0.79,0.03,0.59,0
2427,0.8,0.04,0.59,0
2428,0.8,0.04,0.6,0
2429,0.8,0.03,0.59,0
2430,0.79,0.03,0.59,0
2431,0.8,0.03,0.59,0
2432,0.81,0.03,0.59,0
2433,0.8,0.04,0.59,0
2434,0.8,0.04,0.59,0
2435,0.8,0.03,0.59,0
2436,0.8,0.03,0.59,0
2437,0.79,0.04,0.59,0
2438,0.81,0.04,0.59,0
2439,0.81,0.03,0.59,0
2440,0.8,0.03,0.59,0
2441,0.8,0.03,0.6,0
2442,0.8,0.04,0.59,0
2443,0.8,0.04,0.59,0
2444,0.81,0.04,0.59,0
2445,0.8,0.03,0.59,0
2446,0.79,0.03,0.59,0
2447,0.8,0.03,0.6,0
2448,0.8,0.03,0.6,0
2449,0.79,0.04,0.59,0
2450,0.8,0.03,0.6,0
2451,0.79,0.04,0.6,0
2452,0.79,0.04,0.6,0
2453,0.79,0.03,0.59,0
2454,0.79,0.04,0.6,0
2455,0.78,0.03,0.6,0
2456,0.79,0.04,0.6,0
2457,0.79,0.03,0.6,0
2458,0.79,0.04,0.61,0
2459,0.78,0.04,0.6,0
2460,0.79,0.03,0.6,0
2461,0.78,0.04,0.6,0
2462,0.79,0.03,0.6,0
2463,0.79,0.04,0.6,0
2464,0.78,0.03,0.6,0
2465,0.78,0.03,0.6,0
2466,0.78,0.03,0.6,0
2467,0.78,0.03,0.6,0
2468,0.79,0.03,0.6,0
2469,0.79,0.03,0.6,0
2470,0.78,0.03,0.61,0
2471,0.79,0.03,0.61,0
2472,0.78,0.02,0.61,0
2473,0.78,0.03,0.6,0
2474,0.79,0.03,0.6,0
2475,0.79,0.03,0.6,0
2476,0.78,0.03,0.6,0
2477,0.78,0.02,0.61,0
2478,0.78,0.03,0.61,0
2479,0.78,0.03,0.61,0
2480,0.78,0.03,0.61,0
2481,0.78,0.03,0.61,0
2482,0.77,0.03,0.61,0
2483,0.78,0.02,0.61,0
2484,0.78,0.03,0.6,0
2485,0.78,0.03,0.61,0
2486,0.78,0.02,0.61,0
2487,0.77,0.02,0.61,0
2488,0.77,0.02,0.61,0
2489,0.78,0.03,0.6,0
2490,0.79,0.03,0.59,0
2491,0.77,0.03,0.59,0
2492,0.77,0.02,0.6,0
2493,0.79,0.05,0.59,0
2494,0.78,0.03,0.59,0
2495,0.85,0.05,0.63,0
2496,0.8,0.07,0.6,0
2497,0.83,0.05,0.6,0
2498,0.8,0.04,0.59,0
2499,0.83,0.03,0.59,0
2500,0.81,0.03,0.58,0
2501,0.8,0.04,0.59,0
2502,0.82,0.05,0.58,0
2503,0.83,0.06,0.58,0
2504,0.82,0.05,0.57,0
2505,0.81,0.04,0.57,0
2506,0.82,0.05,0.58,0
2507,0.82,0.05,0.58,0
2508,0.81,0.03,0.58,0
2509,0.81,0.03,0.58,0
2510,0.83,0.04,0.58,0
2511,0.82,0.04,0.58,0
2512,0.82,0.03,0.58,0
2513,0.84,0.03,0.58,0
2514,0.82,0.02,0.57,0
2515,0.82,0.03,0.57,0
2516,0.84,0.05,0.58,0
2517,0.83,0.06,0.58,0
2518,0.81,0.06,0.58,0
2519,0.82,0.08,0.58,0
2520,0.8,0.07,0.59,0
2521,0.82,0.06,0.6,0
2522,0.78,0.05,0.59,0
2523,0.78,0.04,0.55,0
2524,0.81,0.04,0.56,0
2525,0.83,0.02,0.59,0
2526,0.81,0.03,0.59,0
2527,0.83,0.04,0.59,0
2528,0.82,0.04,0.59,0
2529,0.8,0.05,0.59,0
2530,0.8,0.04,0.59,0
2531,0.84,0.04,0.58,0
2532,0.8,0.04,0.58,0
2533,0.8,0.03,0.59,0
2534,0.81,0.04,0.6,0
2535,0.81,0.02,0.59,0
2536,0.78,0.04,0.59,0
2537,0.77,0.03,0.61,0
2538,0.78,0.04,0.62,0
2539,0.77,0.03,0.62,0
2540,0.8,0.01,0.63,0
2541,0.73,0.06,0.61,0
2542,0.81,0.0,0.64,0
2543,0.71,0.05,0.65,0
2544,0.75,0.05,0.67,0
2545,0.77,0.04,0.67,0
2546,0.75,0.05,0.67,0
2547,0.77,0.0,0.63,0
2548,0.77,0.03,0.66,0
2549,0.78,0.06,0.62,0
2550,0.77,0.03,0.61,0
2551,0.72,0.04,0.59,0
2552,0.78,0.05,0.59,0
2553,0.8,0.04,0.61,0
2554,0.77,0.04,0.62,0
2555,0.79,0.04,0.61,0
2556,0.76,0.05,0.6,0
2557,0.8,0.04,0.6,0
2558,0.8,0.03,0.61,0
2559,0.8,0.03,0.6,0
2560,0.79,0.03,0.61,0
2561,0.79,0.04,0.6,0
2562,0.79,0.04,0.6,0
2563,0.79,0.04,0.6,0
2564,0.78,0.03,0.6,0
2565,0.77,0.04,0.6,0
2566,0.8,0.03,0.61,0
2567,0.79,0.04,0.6,0
2568,0.78,0.04,0.6,0
2569,0.77,0.04,0.6,0
2570,0.78,0.04,0.6,0
2571,0.78,0.04,0.6,0
2572,0.78,0.04,0.6,0
2573,0.79,0.05,0.6,0
2574,0.78,0.05,0.6,0
2575,0.78,0.04,0.6,3
2576,0.79,0.05,0.6,3
2577,0.78,0.05,0.6,3
2578,0.78,0.05,0.6,3
2579,0.77,0.05,0.6,3
2580,0.79,0.05,0.6,3
2581,0.79,0.05,0.6,3
2582,0.78,0.04,0.6,3
2583,0.8,0.04,0.6,3
2584,0.8,0.05,0.6,3
2585,0.78,0.05,0.6,3
2586,0.78,0.05,0.6,3
2587,0.78,0.06,0.6,3
2588,0.8,0.05,0.6,3
2589,0.8,0.05,0.6,3
2590,0.78,0.04,0.6,3
2591,0.77,0.04,0.6,3
2592,0.77,0.04,0.6,3
2593,0.73,0.02,0.66,3
2594,0.72,-0.04,0.87,3
2595,0.75,-0.04,1.3,3
2596,1.22,0.21,1.68,3
2597,1.91,0.44,1.77,3
2598,1.68,0.94,1.48,3
2599,1.74,1.07,1.01,3
2600,1.56,1.19,0.54,3
2601,0.7,1.39,-0.18,3
2602,0.38,1.5,-0.43,3
2603,0.0,1.3,-0.67,3
2604,-0.09,0.8,-1.14,3
2605,-0.01,0.17,-1.43,3
2606,0.39,-0.59,-1.52,3
2607,0.57,-1.31,-1.72,3
2608,0.7,-1.91,-1.92,3
2609,0.76,-2.2,-2.05,3
2610,0.76,-1.82,-1.96,3
2611,0.67,-1.29,-1.7,3
2612,0.57,-0.72,-1.51,3
2613,0.4,-0.23,-1.39,3
2614,0.38,0.41,-1.05,3
2615,0.21,0.93,-0.93,3
2616,0.18,1.38,-0.61,3
2617,-0.07,1.37,-0.48,3
2618,0.66,1.41,0.09,3
2619,1.0,1.06,0.27,3
2620,1.81,1.41,1.03,3
2621,1.83,1.35,1.71,3
2622,1.4,1.44,2.67,3
2623,1.03,1.22,2.72,3
2624,0.84,1.05,2.19,3
2625,1.35,0.99,1.57,3
2626,1.41,0.98,1.22,3
2627,1.51,1.06,0.96,3
2628,1.01,1.12,0.13,3
2629,0.74,1.26,0.01,3
2630,0.36,1.41,-0.73,3
2631,-0.22,1.0,-0.75,3
2632,-0.28,0.48,-1.53,3
2633,-0.51,-0.26,-1.55,3
2634,0.12,-1.13,-1.49,3
2635,0.27,-1.72,-1.47,3
2636,0.36,-2.12,-1.48,3
2637,0.29,-1.84,-1.62,3
2638,0.31,-1.26,-1.43,3
2639,0.25,-0.76,-1.11,3
2640,0.21,-0.29,-0.87,3
2641,0.2,0.14,-0.67,3
2642,0.28,0.49,-0.5,3
2643,0.14,0.7,-0.52,3
2644,0.86,0.97,0.45,3
2645,0.83,0.56,0.95,3
2646,1.17,0.73,1.55,3
2647,1.38,0.49,1.57,3
2648,0.85,0.48,1.3,3
2649,1.12,0.28,1.13,3
2650,0.7,0.12,0.93,3
2651,0.76,0.03,0.79,3
2652,0.7,0.02,0.6,3
2653,0.62,0.04,0.54,3
2654,0.9,0.09,0.59,3
2655,0.84,0.06,0.61,3
2656,0.84,0.01,0.61,3
2657,0.69,0.05,0.59,3
2658,0.83,0.1,0.57,3
2659,0.85,0.09,0.53,3
2660,0.86,0.1,0.55,3
2661,0.84,0.09,0.54,3
2662,0.84,0.07,0.52,3
2663,0.85,0.06,0.52,3
2664,0.84,0.1,0.54,3
2665,0.85,0.08,0.54,3
2666,0.86,0.09,0.53,3
2667,0.84,0.11,0.52,3
2668,0.85,0.07,0.54,3
2669,0.84,0.09,0.52,3
2670,0.81,0.08,0.56,3
2671,0.85,0.07,0.55,3
2672,0.85,0.09,0.53,3
2673,0.84,0.02,0.49,3
2674,0.81,0.14,0.49,3
2675,0.85,0.09,0.58,3
2676,0.87,0.08,0.6,3
2677,0.83,0.04,0.61,3
2678,0.81,0.09,0.5,3
2679,0.78,0.07,0.44,3
2680,0.84,0.13,0.54,3
2681,0.85,0.07,0.63,3
2682,0.84,0.1,0.6,3
2683,0.84,0.08,0.58,3
2684,0.87,0.09,0.57,3
2685,0.79,0.14,0.54,3
2686,0.8,0.1,0.51,3
2687,0.86,0.15,0.52,3
2688,0.82,0.1,0.49,3
2689,0.83,0.08,0.51,3
2690,0.85,0.07,0.55,3
2691,0.8,0.07,0.56,3
2692,0.85,0.09,0.58,3
2693,0.85,0.09,0.55,3
2694,0.86,0.1,0.53,3
2695,0.85,0.1,0.52,3
2696,0.86,0.1,0.51,3
2697,0.85,0.11,0.52,3
2698,0.84,0.1,0.52,3
2699,0.83,0.1,0.52,3
2700,0.83,0.08,0.53,0
2701,0.85,0.06,0.52,0
2702,0.85,0.05,0.53,0
2703,0.85,0.05,0.53,0
2704,0.85,0.05,0.52,0
2705,0.85,0.07,0.52,0
2706,0.85,0.08,0.51,0
2707,0.85,0.09,0.53,0
2708,0.84,0.09,0.53,0
2709,0.82,0.06,0.51,0
2710,0.85,0.05,0.52,0
2711,0.85,0.05,0.52,0
2712,0.84,0.05,0.52,0
2713,0.86,0.07,0.51,0
2714,0.9,0.08,0.5,0
2715,0.88,0.08,0.52,0
2716,0.85,0.08,0.52,0
2717,0.85,0.09,0.53,0
2718,0.85,0.09,0.54,0
2719,0.84,0.1,0.51,0
2720,0.84,0.1,0.52,0
2721,0.85,0.1,0.51,0
2722,0.85,0.07,0.52,0
2723,0.84,0.05,0.52,0
2724,0.81,0.04,0.5,0
2725,0.85,0.04,0.51,0
2726,0.87,0.06,0.53,0
2727,0.84,0.09,0.51,0
2728,0.86,0.09,0.52,0
2729,0.86,0.06,0.52,0
2730,0.85,0.08,0.51,0
2731,0.84,0.07,0.52,0
2732,0.85,0.07,0.53,0
2733,0.85,0.08,0.52,0
2734,0.85,0.05,0.52,0
2735,0.84,0.07,0.53,0
2736,0.85,0.07,0.54,0
2737,0.84,0.05,0.54,0
2738,0.84,0.07,0.53,0
2739,0.85,0.07,0.54,0
2740,0.84,0.07,0.54,0
2741,0.84,0.08,0.55,0
2742,0.84,0.07,0.55,0
2743,0.82,0.08,0.57,0
2744,0.83,0.05,0.56,0
2745,0.82,0.1,0.58,0
2746,0.81,0.05,0.57,0
2747,0.81,0.1,0.58,0
2748,0.83,0.05,0.59,0
2749,0.77,0.11,0.59,0
2750,0.87,0.04,0.59,0
2751,0.75,0.11,0.6,0
2752,0.81,0.08,0.62,0
2753,0.78,0.09,0.63,0
2754,0.78,0.04,0.59,0
2755,0.78,0.05,0.53,0
2756,0.79,0.08,0.53,0
2757,0.82,0.09,0.58,0
2758,0.67,0.04,0.56,0
2759,0.82,0.1,0.57,0
2760,0.85,0.09,0.56,0
2761,0.84,0.06,0.56,0
2762,0.85,0.06,0.57,0
2763,0.82,0.07,0.57,0
2764,0.84,0.09,0.57,0
2765,0.83,0.09,0.56,0
2766,0.82,0.1,0.54,0
2767,0.84,0.1,0.55,0
2768,0.81,0.09,0.54,0
2769,0.83,0.1,0.55,0
2770,0.84,0.09,0.55,0
2771,0.82,0.1,0.55,0
2772,0.84,0.1,0.55,0
2773,0.82,0.1,0.55,0
2774,0.83,0.1,0.55,0
2775,0.84,0.11,0.56,3
2776,0.83,0.11,0.56,3
2777,0.83,0.11,0.57,3
2778,0.81,0.11,0.55,3
2779,0.82,0.11,0.55,3
2780,0.82,0.11,0.55,3
2781,0.81,0.11,0.54,3
2782,0.83,0.11,0.55,3
2783,0.81,0.11,0.56,3
2784,0.83,0.11,0.57,3
2785,0.82,0.11,0.57,3
2786,0.83,0.12,0.57,3
2787,0.81,0.13,0.56,3
2788,0.83,0.13,0.55,3
2789,0.82,0.14,0.56,3
2790,0.81,0.16,0.56,3
2791,0.81,0.16,0.56,3
2792,0.83,0.15,0.57,3
2793,0.82,0.15,0.58,3
2794,0.8,0.13,0.56,3
2795,0.79,0.12,0.58,3
2796,0.8,0.13,0.61,3
2797,0.83,0.11,0.75,3
2798,0.84,0.06,1.0,3
2799,0.92,-0.01,1.31,3
2800,1.11,-0.12,1.57,3
2801,1.07,-0.12,1.64,3
2802,1.42,-0.16,1.65,3
2803,1.27,-0.15,1.39,3
2804,1.26,-0.03,1.15,3
2805,1.07,0.2,0.77,3
2806,0.52,0.33,0.34,3
2807,0.31,0.42,0.14,3
2808,0.09,0.35,-0.02,3
2809,-0.24,-0.01,0.02,3
2810,-0.18,-0.24,0.22,3
2811,-0.45,-0.3,0.4,3
2812,-0.28,-0.27,0.53,3
2813,-0.34,-0.13,0.59,3
2814,-0.26,-0.13,0.66,3
2815,-0.2,0.02,0.56,3
2816,-0.02,0.12,0.58,3
2817,0.05,0.16,0.52,3
2818,0.19,0.27,0.66,3
2819,0.31,0.28,0.77,3
2820,0.69,0.29,0.8,3
2821,0.96,0.23,1.07,3
2822,0.9,0.1,1.24,3
2823,0.95,-0.03,1.44,3
2824,1.28,-0.32,1.36,3
2825,1.37,-0.25,1.32,3
2826,0.97,-0.25,1.21,3
2827,0.71,-0.09,1.19,3
2828,0.67,-0.03,1.01,3
2829,0.56,0.09,0.86,3
2830,0.72,0.14,0.75,3
2831,0.64,0.23,0.75,3
2832,0.61,0.24,0.76,3
2833,0.59,0.25,0.74,3
2834,0.63,0.24,0.74,3
2835,0.6,0.23,0.74,3
2836,0.58,0.23,0.76,3
2837,0.59,0.22,0.77,3
2838,0.61,0.2,0.78,3
2839,0.62,0.17,0.76,3
2840,0.59,0.18,0.75,3
2841,0.64,0.18,0.76,3
2842,0.65,0.21,0.74,3
2843,0.66,0.2,0.74,3
2844,0.65,0.19,0.72,3
2845,0.64,0.21,0.74,3
2846,0.66,0.19,0.75,3
2847,0.66,0.19,0.76,3
2848,0.67,0.19,0.74,3
2849,0.66,0.19,0.74,3
2850,0.63,0.18,0.75,3
2851,0.6,0.19,0.72,3
2852,0.64,0.2,0.75,3
2853,0.63,0.18,0.77,3
2854,0.65,0.18,0.77,3
2855,0.64,0.2,0.75,3
2856,0.6,0.21,0.74,3
2857,0.64,0.21,0.79,3
2858,0.64,0.22,0.83,3
2859,0.64,0.12,0.72,3
2860,0.59,0.25,0.73,3
2861,0.63,0.17,0.73,3
2862,0.59,0.2,0.74,3
2863,0.64,0.22,0.74,3
2864,0.59,0.23,0.77,3
2865,0.67,0.21,0.81,3
2866,0.69,0.21,0.78,3
2867,0.61,0.23,0.72,3
2868,0.65,0.23,0.73,3
2869,0.61,0.23,0.73,3
2870,0.67,0.2,0.69,3
2871,0.64,0.23,0.71,3
2872,0.65,0.22,0.72,3
2873,0.66,0.23,0.71,3
2874,0.66,0.23,0.73,3
2875,0.67,0.23,0.74,0
2876,0.66,0.22,0.73,0
2877,0.66,0.23,0.74,0
2878,0.67,0.23,0.73,0
2879,0.62,0.23,0.72,0
2880,0.67,0.23,0.73,0
2881,0.64,0.23,0.72,0
2882,0.65,0.23,0.72,0
2883,0.66,0.23,0.73,0
2884,0.63,0.23,0.73,0
2885,0.66,0.23,0.74,0
2886,0.65,0.23,0.73,0
2887,0.65,0.23,0.73,0
2888,0.66,0.22,0.74,0
2889,0.66,0.23,0.73,0
2890,0.65,0.22,0.73,0
2891,0.63,0.23,0.72,0
2892,0.65,0.22,0.71,0
2893,0.65,0.22,0.71,0
2894,0.66,0.22,0.72,0
2895,0.67,0.21,0.72,0
2896,0.66,0.21,0.71,0
2897,0.68,0.21,0.74,0
2898,0.65,0.2,0.74,0
2899,0.54,0.27,0.75,0
2900,0.64,0.25,0.71,0
2901,0.66,0.21,0.68,0
2902,0.66,0.19,0.68,0
2903,0.68,0.16,0.7,0
2904,0.7,0.13,0.7,0
2905,0.71,0.12,0.69,0
2906,0.75,0.11,0.71,0
2907,0.72,0.11,0.71,0
2908,0.75,0.12,0.69,0
2909,0.74,0.15,0.7,0
2910,0.74,0.2,0.71,0
2911,0.75,0.22,0.67,0
2912,0.77,0.24,0.68,0
2913,0.75,0.27,0.67,0
2914,0.73,0.27,0.66,0
2915,0.74,0.26,0.65,0
2916,0.73,0.24,0.61,0
2917,0.73,0.22,0.6,0
2918,0.73,0.21,0.6,0
2919,0.73,0.21,0.6,0
2920,0.73,0.2,0.61,0
2921,0.72,0.2,0.6,0
2922,0.74,0.2,0.62,0
2923,0.75,0.19,0.62,0
2924,0.73,0.18,0.61,0
2925,0.77,0.13,0.6,0
2926,0.76,0.11,0.58,0
2927,0.71,0.13,0.57,0
2928,0.73,0.11,0.58,0
2929,0.75,0.11,0.6,0
2930,0.72,0.12,0.63,0
2931,0.72,0.11,0.7,0
2932,0.77,0.06,0.71,0
2933,0.78,0.06,0.73,0
2934,0.75,0.04,0.73,0
2935,0.73,0.03,0.72,0
2936,0.7,0.05,0.74,0
2937,0.69,0.03,0.77,0
2938,0.68,0.02,0.78,0
2939,0.65,0.01,0.8,0
2940,0.66,0.0,0.8,0
2941,0.62,0.01,0.8,0
2942,0.61,0.01,0.79,0
2943,0.63,0.01,0.78,0
2944,0.65,0.0,0.76,0
2945,0.68,0.0,0.75,0
2946,0.71,0.0,0.75,0
2947,0.69,0.0,0.74,0
2948,0.69,0.0,0.75,0
2949,0.69,-0.01,0.74,0
2950,0.68,-0.01,0.73,0
2951,0.7,-0.02,0.73,0
2952,0.71,-0.02,0.74,0
2953,0.7,-0.01,0.74,0
2954,0.71,-0.01,0.73,0
2955,0.71,-0.01,0.74,0
2956,0.71,-0.01,0.73,0
2957,0.7,-0.01,0.72,0
2958,0.71,-0.02,0.72,0
2959,0.71,-0.02,0.72,0
2960,0.69,-0.02,0.71,0
2961,0.7,-0.01,0.71,0
2962,0.7,-0.03,0.74,0
2963,0.67,-0.03,0.75,0
2964,0.68,-0.02,0.74,0
2965,0.69,-0.02,0.74,0
2966,0.7,0.0,0.7,0
2967,0.72,0.01,0.71,0
2968,0.73,0.02,0.67,0
2969,0.73,0.02,0.69,0
2970,0.74,0.02,0.71,0
2971,0.73,0.02,0.68,0
2972,0.73,0.02,0.69,0
2973,0.74,0.04,0.68,0
2974,0.79,0.05,0.73,0
2975,0.76,0.08,0.72,0
2976,0.74,0.1,0.68,0
2977,0.73,0.11,0.68,0
2978,0.74,0.09,0.65,0
2979,0.74,0.07,0.66,0
2980,0.76,0.07,0.64,0
2981,0.77,0.1,0.63,0
2982,0.75,0.11,0.62,0
2983,0.74,0.1,0.66,0
2984,0.76,0.08,0.63,0
2985,0.74,0.1,0.64,0
2986,0.75,0.1,0.62,0
2987,0.76,0.08,0.61,0
2988,0.78,0.07,0.61,0
2989,0.81,0.08,0.6,0
2990,0.79,0.04,0.6,0
2991,0.78,0.06,0.6,0
2992,0.81,0.05,0.58,0
2993,0.84,0.06,0.59,0
2994,0.82,0.08,0.58,0
2995,0.83,0.06,0.56,0
2996,0.82,0.09,0.55,0
2997,0.83,0.1,0.53,0
2998,0.84,0.1,0.52,0
2999,0.85,0.09,0.53,0
