sequence,accelx,accely,accelz,event
0,0.14,-0.06,0.98,0
1,0.13,-0.07,0.98,0
2,0.14,-0.07,0.98,0
3,0.14,-0.07,0.98,0
4,0.15,-0.07,0.98,0
5,0.15,-0.07,0.98,0
6,0.14,-0.06,0.98,0
7,0.14,-0.07,0.98,0
8,0.13,-0.07,0.98,0
9,0.14,-0.07,0.99,0
10,0.14,-0.07,0.98,0
11,0.14,-0.07,0.98,0
12,0.14,-0.07,0.98,0
13,0.14,-0.07,0.98,0
14,0.13,-0.07,0.98,0
15,0.14,-0.07,0.98,0
16,0.13,-0.07,0.98,0
17,0.13,-0.07,0.99,0
18,0.14,-0.07,0.99,0
19,0.14,-0.07,0.98,0
20,0.14,-0.07,0.98,0
21,0.13,-0.06,0.98,0
22,0.14,-0.06,0.98,0
23,0.14,-0.07,0.98,0
24,0.14,-0.07,0.98,0
25,0.13,-0.07,0.99,0
26,0.14,-0.07,0.98,0
27,0.14,-0.07,0.98,0
28,0.14,-0.06,0.98,0
29,0.13,-0.06,0.98,0
30,0.14,-0.07,0.98,0
31,0.14,-0.07,0.99,0
32,0.13,-0.07,0.98,0
33,0.14,-0.07,0.98,0
34,0.14,-0.06,0.98,0
35,0.15,-0.06,0.99,0
36,0.14,-0.06,0.98,0
37,0.15,-0.07,0.99,0
38,0.14,-0.06,0.98,0
39,0.15,-0.06,0.98,0
40,0.15,-0.06,0.98,0
41,0.12,-0.04,0.98,0
42,0.09,-0.05,0.98,0
43,0.09,-0.05,0.97,0
44,0.09,-0.04,0.98,0
45,0.12,-0.03,0.99,0
46,0.13,-0.03,0.99,0
47,0.14,-0.04,0.99,0
48,0.13,-0.05,0.98,0
49,0.15,-0.05,0.99,0
50,0.14,-0.05,0.99,0
51,0.16,-0.04,0.99,0
52,0.11,-0.03,0.98,0
53,0.11,-0.02,0.98,0
54,0.11,-0.03,0.98,0
55,0.09,-0.03,0.98,0
56,0.1,-0.02,0.98,0
57,0.09,-0.04,0.98,0
58,0.09,-0.03,1.0,0
59,0.09,-0.05,0.99,0
60,0.06,-0.02,1.0,0
61,0.09,-0.05,0.99,0
62,0.06,-0.04,0.98,0
63,0.08,-0.04,0.99,0
64,0.08,-0.05,0.98,0
65,0.03,-0.03,0.99,0
66,0.06,-0.04,1.02,0
67,0.03,-0.05,0.98,0
68,0.03,-0.05,0.99,0
69,0.01,-0.02,0.98,0
70,0.02,-0.05,0.98,0
71,0.0,-0.04,1.0,0
72,0.01,-0.03,1.0,0
73,0.0,-0.03,1.01,0
74,0.06,-0.06,1.01,0
75,0.06,-0.05,1.02,0
76,0.04,-0.02,1.0,0
77,0.08,-0.02,0.98,0
78,0.09,-0.02,0.97,0
79,0.14,0.0,0.98,0
80,0.09,-0.02,0.98,0
81,0.09,-0.01,0.99,0
82,0.09,-0.01,0.99,0
83,0.08,-0.03,0.99,0
84,0.09,-0.01,0.99,0
85,0.09,-0.03,0.99,0
86,0.08,-0.02,1.0,0
87,0.08,-0.02,0.99,0
88,0.08,-0.03,0.98,0
89,0.09,-0.01,0.99,0
90,0.08,-0.02,0.98,0
91,0.09,-0.02,0.98,0
92,0.09,-0.02,0.99,0
93,0.09,-0.02,0.99,0
94,0.08,-0.02,0.98,0
95,0.09,-0.02,0.99,0
96,0.09,-0.02,0.99,0
97,0.08,-0.02,0.99,0
98,0.08,-0.02,0.99,0
99,0.08,-0.02,0.99,0
100,0.08,-0.02,0.99,1
101,0.08,-0.02,0.99,1
102,0.08,-0.02,0.99,1
103,0.08,-0.02,0.98,1
104,0.08,-0.02,0.98,1
105,0.08,-0.02,0.99,1
106,0.09,-0.02,0.99,1
107,0.08,-0.02,0.98,1
108,0.09,-0.02,0.99,1
109,0.08,-0.02,0.99,1
110,0.08,-0.02,0.99,1
111,0.08,-0.02,0.98,1
112,0.09,-0.02,0.99,1
113,0.08,-0.02,0.99,1
114,0.08,-0.01,0.99,1
115,0.09,-0.02,0.98,1
116,0.09,-0.01,1.0,1
117,0.08,-0.03,1.03,1
118,0.06,-0.02,1.08,1
119,0.03,-0.06,1.1,1
120,0.0,-0.1,1.12,1
121,-0.15,-0.14,1.34,1
122,0.2,-0.31,1.59,1
123,0.12,-0.32,1.68,1
124,0.43,-0.38,1.56,1
125,0.47,-0.33,1.36,1
126,0.51,-0.35,1.2,1
127,0.59,-0.31,0.91,1
128,0.48,-0.23,0.69,1
129,0.18,-0.04,0.32,1
130,0.14,0.2,0.16,1
131,-0.17,0.36,-0.14,1
132,-0.24,0.49,-0.07,1
133,-0.4,0.52,-0.01,1
134,0.02,0.54,0.29,1
135,0.55,0.43,0.76,1
136,0.98,0.28,0.97,1
137,1.5,0.25,1.41,1
138,0.94,0.09,1.29,1
139,1.47,-0.08,1.41,1
140,0.84,0.03,1.43,1
141,1.54,0.08,1.85,1
142,0.95,0.26,2.05,1
143,1.22,0.4,2.01,1
144,1.13,0.52,1.66,1
145,1.18,0.46,1.51,1
146,0.95,0.35,1.04,1
147,0.7,0.15,0.53,1
148,0.36,-0.02,0.07,1
149,-0.2,-0.24,-0.23,1
150,0.02,-0.31,-0.3,1
151,-0.13,-0.42,-0.49,1
152,-0.12,-0.4,-0.56,1
153,0.08,-0.45,-0.6,1
154,0.16,-0.36,-0.52,1
155,0.58,-0.14,-0.31,1
156,0.56,-0.1,0.19,1
157,0.71,0.23,1.08,1
158,0.4,0.09,1.48,1
159,0.78,0.21,1.68,1
160,0.6,0.23,1.63,1
161,0.7,0.34,1.75,1
162,0.42,0.39,1.58,1
163,0.49,0.26,1.38,1
164,0.46,0.11,1.02,1
165,0.64,0.0,0.88,1
166,0.55,-0.02,0.8,1
167,0.59,-0.06,0.81,1
168,0.57,-0.01,0.84,1
169,0.6,-0.04,0.85,1
170,0.58,-0.01,0.85,1
171,0.58,-0.01,0.82,1
172,0.59,-0.02,0.82,1
173,0.6,-0.02,0.82,1
174,0.61,-0.03,0.79,1
175,0.58,-0.01,0.79,1
176,0.59,-0.02,0.79,1
177,0.58,-0.02,0.8,1
178,0.59,-0.01,0.81,1
179,0.6,-0.01,0.81,1
180,0.57,0.0,0.79,1
181,0.59,-0.05,0.8,1
182,0.53,0.02,0.83,1
183,0.58,-0.03,0.84,1
184,0.51,0.01,0.86,1
185,0.58,-0.01,0.84,1
186,0.57,-0.03,0.85,1
187,0.59,0.0,0.9,1
188,0.54,0.01,0.88,1
189,0.55,0.0,0.79,1
190,0.58,0.0,0.81,1
191,0.55,-0.02,0.76,1
192,0.52,0.0,0.83,1
193,0.55,0.0,0.89,1
194,0.56,-0.04,0.89,1
195,0.55,-0.01,0.85,1
196,0.57,0.0,0.82,1
197,0.56,-0.01,0.79,1
198,0.59,0.0,0.79,1
199,0.56,-0.01,0.79,1
200,0.57,0.0,0.82,0
201,0.59,-0.01,0.84,0
202,0.58,-0.02,0.84,0
203,0.59,-0.01,0.84,0
204,0.58,-0.01,0.84,0
205,0.57,-0.01,0.81,0
206,0.58,-0.01,0.81,0
207,0.57,-0.01,0.81,0
208,0.58,0.0,0.83,0
209,0.58,-0.02,0.83,0
210,0.58,-0.01,0.83,0
211,0.58,-0.01,0.81,0
212,0.58,-0.01,0.82,0
213,0.56,-0.01,0.82,0
214,0.58,-0.01,0.82,0
215,0.57,-0.02,0.81,0
216,0.56,-0.01,0.82,0
217,0.58,-0.01,0.82,0
218,0.57,-0.01,0.81,0
219,0.58,-0.01,0.83,0
220,0.58,-0.01,0.82,0
221,0.58,-0.01,0.84,0
222,0.57,-0.02,0.82,0
223,0.57,-0.01,0.83,0
224,0.58,-0.01,0.82,0
225,0.58,-0.01,0.81,0
226,0.58,-0.01,0.81,0
227,0.57,-0.01,0.83,0
228,0.57,-0.01,0.82,0
229,0.56,-0.01,0.82,0
230,0.59,-0.01,0.82,0
231,0.58,0.0,0.82,0
232,0.57,-0.01,0.82,0
233,0.58,-0.01,0.83,0
234,0.58,-0.01,0.84,0
235,0.62,-0.01,0.82,0
236,0.59,0.0,0.84,0
237,0.57,-0.01,0.84,0
238,0.58,-0.01,0.82,0
239,0.58,0.0,0.8,0
240,0.58,-0.01,0.81,0
241,0.58,-0.01,0.81,0
242,0.59,-0.01,0.81,0
243,0.58,-0.01,0.82,0
244,0.58,-0.01,0.82,0
245,0.59,-0.01,0.82,0
246,0.58,-0.01,0.81,0
247,0.58,-0.01,0.82,0
248,0.59,-0.02,0.81,0
249,0.58,-0.01,0.81,0
250,0.57,-0.01,0.82,0
251,0.59,-0.02,0.81,0
252,0.58,-0.01,0.81,0
253,0.58,-0.01,0.82,0
254,0.58,-0.01,0.82,0
255,0.58,-0.01,0.81,0
256,0.58,-0.01,0.82,0
257,0.58,-0.01,0.82,0
258,0.58,-0.01,0.81,0
259,0.58,-0.01,0.83,0
260,0.58,-0.02,0.82,0
261,0.58,-0.01,0.81,0
262,0.58,-0.01,0.82,0
263,0.58,-0.01,0.82,0
264,0.58,-0.01,0.81,0
265,0.58,-0.02,0.83,0
266,0.58,-0.01,0.82,0
267,0.58,-0.01,0.82,0
268,0.58,-0.01,0.82,0
269,0.57,0.0,0.82,0
270,0.58,-0.01,0.81,0
271,0.58,-0.01,0.81,0
272,0.58,-0.01,0.82,0
273,0.58,-0.01,0.83,0
274,0.58,-0.01,0.82,0
275,0.58,-0.01,0.83,0
276,0.58,-0.01,0.83,0
277,0.58,-0.01,0.82,0
278,0.58,-0.01,0.81,0
279,0.58,-0.01,0.8,0
280,0.58,-0.01,0.81,0
281,0.58,-0.01,0.82,0
282,0.58,-0.01,0.83,0
283,0.58,-0.02,0.82,0
284,0.58,-0.01,0.82,0
285,0.58,-0.01,0.82,0
286,0.58,-0.02,0.81,0
287,0.57,-0.01,0.81,0
288,0.58,-0.01,0.83,0
289,0.58,-0.01,0.81,0
290,0.58,-0.01,0.82,0
291,0.58,-0.01,0.82,0
292,0.57,-0.01,0.82,0
293,0.58,-0.02,0.82,0
294,0.58,-0.01,0.82,0
295,0.58,-0.01,0.82,0
296,0.58,-0.01,0.82,0
297,0.58,-0.01,0.81,0
298,0.58,-0.01,0.82,0
299,0.58,-0.01,0.82,0
300,0.58,-0.01,0.81,0
301,0.58,-0.01,0.82,0
302,0.58,-0.01,0.81,0
303,0.58,-0.01,0.81,0
304,0.58,-0.01,0.83,0
305,0.58,-0.02,0.82,0
306,0.58,-0.01,0.82,0
307,0.58,-0.01,0.81,0
308,0.58,-0.01,0.82,0
309,0.57,-0.01,0.82,0
310,0.58,-0.01,0.82,0
311,0.57,-0.01,0.82,0
312,0.58,-0.01,0.82,0
313,0.58,-0.01,0.82,0
314,0.57,-0.01,0.83,0
315,0.58,-0.02,0.82,0
316,0.58,-0.01,0.81,0
317,0.58,-0.01,0.82,0
318,0.58,-0.01,0.82,0
319,0.58,-0.01,0.82,0
320,0.58,-0.01,0.82,0
321,0.58,-0.01,0.82,0
322,0.57,0.0,0.83,0
323,0.58,-0.01,0.83,0
324,0.58,-0.01,0.82,0
325,0.58,-0.01,0.83,0
326,0.56,-0.01,0.81,0
327,0.57,0.0,0.83,0
328,0.54,-0.02,0.82,0
329,0.58,0.0,0.84,0
330,0.54,-0.02,0.84,0
331,0.55,0.0,0.86,0
332,0.57,-0.02,0.84,0
333,0.56,0.0,0.83,0
334,0.53,-0.03,0.82,0
335,0.55,-0.01,0.82,0
336,0.56,0.04,0.86,0
337,0.56,-0.02,0.86,0
338,0.53,0.0,0.84,0
339,0.57,-0.02,0.82,0
340,0.51,0.0,0.88,0
341,0.54,-0.03,0.84,0
342,0.52,0.0,0.82,0
343,0.53,0.0,0.87,0
344,0.56,-0.02,0.84,0
345,0.53,0.0,0.84,0
346,0.54,0.0,0.86,0
347,0.54,0.0,0.87,0
348,0.53,-0.05,0.85,0
349,0.58,0.03,0.83,0
350,0.53,0.0,0.82,0
351,0.58,0.0,0.82,0
352,0.56,0.0,0.81,0
353,0.58,0.0,0.83,0
354,0.59,0.0,0.81,0
355,0.59,-0.01,0.84,0
356,0.56,0.0,0.83,0
357,0.58,-0.01,0.82,0
358,0.58,0.0,0.82,0
359,0.58,0.0,0.83,0
360,0.58,-0.01,0.83,0
361,0.58,0.0,0.82,0
362,0.58,-0.01,0.82,0
363,0.58,0.0,0.81,0
364,0.58,0.0,0.82,0
365,0.58,0.0,0.81,0
366,0.58,0.0,0.82,0
367,0.58,0.0,0.83,0
368,0.58,-0.01,0.82,0
369,0.58,0.0,0.82,0
370,0.58,-0.01,0.82,0
371,0.58,0.0,0.82,0
372,0.58,-0.01,0.82,0
373,0.57,0.0,0.81,0
374,0.58,0.0,0.83,0
375,0.58,0.0,0.81,1
376,0.59,0.0,0.82,1
377,0.58,0.0,0.84,1
378,0.58,0.0,0.82,1
379,0.58,-0.01,0.82,1
380,0.58,0.0,0.82,1
381,0.58,0.0,0.81,1
382,0.57,0.0,0.82,1
383,0.58,0.0,0.82,1
384,0.58,-0.01,0.82,1
385,0.57,0.0,0.83,1
386,0.58,-0.01,0.82,1
387,0.58,0.0,0.82,1
388,0.57,0.0,0.82,1
389,0.58,0.0,0.82,1
390,0.58,0.0,0.82,1
391,0.58,0.0,0.81,1
392,0.58,0.0,0.83,1
393,0.59,-0.01,0.84,1
394,0.58,0.0,0.86,1
395,0.59,-0.01,0.94,1
396,0.59,-0.05,1.06,1
397,0.51,-0.13,1.25,1
398,0.63,-0.26,1.57,1
399,0.9,-0.37,1.87,1
400,1.09,-0.42,1.88,1
401,1.1,-0.29,1.51,1
402,1.02,-0.12,0.94,1
403,0.54,0.05,0.3,1
404,0.23,0.18,-0.01,1
405,-0.35,0.28,-0.18,1
406,-0.55,0.23,-0.24,1
407,-0.5,0.23,-0.19,1
408,-0.44,0.31,-0.11,1
409,-0.05,0.49,0.13,1
410,0.18,0.65,0.47,1
411,1.0,0.64,1.0,1
412,0.96,0.6,1.19,1
413,1.57,0.3,1.36,1
414,1.5,0.2,1.22,1
415,1.58,-0.04,1.39,1
416,1.24,-0.05,1.56,1
417,1.1,0.32,2.02,1
418,1.23,0.6,2.06,1
419,1.36,0.65,1.75,1
420,1.48,0.63,1.44,1
421,1.24,0.46,0.83,1
422,0.95,0.2,0.41,1
423,0.41,-0.01,0.01,1
424,-0.14,-0.22,-0.24,1
425,0.2,-0.24,-0.42,1
426,-0.25,-0.29,-0.55,1
427,0.0,-0.27,-0.66,1
428,-0.15,-0.28,-0.76,1
429,-0.02,-0.16,-0.64,1
430,0.48,-0.1,-0.29,1
431,0.64,0.11,0.32,1
432,1.13,0.09,1.29,1
433,1.09,0.25,1.27,1
434,1.18,0.27,1.45,1
435,1.15,0.4,1.39,1
436,1.04,0.46,1.51,1
437,0.87,0.36,1.37,1
438,0.79,0.21,1.06,1
439,0.8,0.1,0.78,1
440,0.78,0.0,0.67,1
441,0.75,-0.01,0.62,1
442,0.82,-0.02,0.63,1
443,0.82,-0.02,0.64,1
444,0.81,0.0,0.6,1
445,0.79,-0.01,0.58,1
446,0.84,-0.04,0.58,1
447,0.79,-0.04,0.59,1
448,0.8,-0.03,0.59,1
449,0.8,0.0,0.6,1
450,0.8,-0.03,0.6,1
451,0.77,-0.01,0.59,1
452,0.81,-0.01,0.6,1
453,0.79,-0.02,0.61,1
454,0.77,-0.01,0.65,1
455,0.75,0.01,0.62,1
456,0.77,-0.02,0.66,1
457,0.74,-0.01,0.64,1
458,0.77,-0.01,0.67,1
459,0.76,-0.03,0.67,1
460,0.79,0.01,0.7,1
461,0.73,0.0,0.68,1
462,0.76,-0.1,0.57,1
463,0.74,0.02,0.59,1
464,0.77,-0.04,0.6,1
465,0.73,0.03,0.67,1
466,0.78,-0.01,0.73,1
467,0.78,-0.01,0.74,1
468,0.78,-0.05,0.63,1
469,0.79,0.0,0.6,1
470,0.77,-0.01,0.59,1
471,0.74,0.01,0.6,1
472,0.76,0.0,0.61,1
473,0.78,0.0,0.63,1
474,0.77,-0.01,0.62,1
475,0.77,0.0,0.63,0
476,0.78,-0.01,0.62,0
477,0.77,-0.01,0.62,0
478,0.76,0.0,0.61,0
479,0.77,-0.01,0.61,0
480,0.78,0.0,0.63,0
481,0.78,-0.01,0.63,0
482,0.77,-0.01,0.64,0
483,0.78,-0.01,0.64,0
484,0.77,0.0,0.63,0
485,0.77,0.0,0.61,0
486,0.77,0.0,0.63,0
487,0.76,0.0,0.63,0
488,0.76,-0.01,0.61,0
489,0.77,-0.01,0.63,0
490,0.76,-0.01,0.63,0
491,0.77,-0.01,0.63,0
492,0.77,-0.01,0.63,0
493,0.76,-0.01,0.62,0
494,0.77,0.0,0.63,0
495,0.77,-0.01,0.63,0
496,0.76,-0.01,0.64,0
497,0.78,-0.01,0.63,0
498,0.76,-0.01,0.62,0
499,0.76,-0.01,0.63,0
500,0.76,-0.01,0.61,0
501,0.77,0.0,0.62,0
502,0.76,-0.01,0.63,0
503,0.77,-0.01,0.62,0
504,0.77,-0.01,0.64,0
505,0.77,-0.01,0.62,0
506,0.77,-0.01,0.62,0
507,0.77,-0.01,0.62,0
508,0.77,-0.01,0.62,0
509,0.77,-0.01,0.62,0
510,0.77,-0.01,0.62,0
511,0.76,-0.01,0.61,0
512,0.78,-0.01,0.61,0
513,0.77,-0.01,0.62,0
514,0.78,-0.01,0.62,0
515,0.78,-0.01,0.62,0
516,0.77,-0.01,0.62,0
517,0.78,-0.01,0.61,0
518,0.78,-0.01,0.61,0
519,0.78,-0.01,0.61,0
520,0.77,-0.01,0.62,0
521,0.78,-0.01,0.62,0
522,0.78,-0.01,0.61,0
523,0.78,-0.01,0.62,0
524,0.77,-0.01,0.61,0
525,0.78,-0.01,0.61,0
526,0.77,0.0,0.61,0
527,0.77,-0.01,0.6,0
528,0.78,-0.01,0.61,0
529,0.8,-0.01,0.61,0
530,0.78,-0.01,0.61,0
531,0.78,-0.01,0.61,0
532,0.78,-0.01,0.61,0
533,0.78,-0.01,0.6,0
534,0.78,-0.01,0.6,0
535,0.77,-0.01,0.61,0
536,0.78,-0.01,0.61,0
537,0.78,-0.02,0.6,0
538,0.78,-0.01,0.61,0
539,0.78,-0.01,0.61,0
540,0.78,-0.01,0.61,0
541,0.78,-0.01,0.61,0
542,0.78,-0.02,0.61,0
543,0.78,-0.02,0.6,0
544,0.78,-0.01,0.61,0
545,0.78,-0.01,0.61,0
546,0.78,-0.01,0.6,0
547,0.78,-0.01,0.61,0
548,0.78,-0.02,0.61,0
549,0.78,-0.01,0.61,0
550,0.77,-0.02,0.6,0
551,0.78,-0.01,0.61,0
552,0.77,-0.01,0.6,0
553,0.78,-0.01,0.6,0
554,0.78,-0.01,0.61,0
555,0.78,-0.02,0.61,0
556,0.78,-0.02,0.6,0
557,0.78,-0.01,0.6,0
558,0.78,-0.01,0.61,0
559,0.78,-0.01,0.61,0
560,0.78,-0.01,0.61,0
561,0.78,-0.01,0.61,0
562,0.78,-0.01,0.61,0
563,0.78,-0.01,0.6,0
564,0.78,-0.01,0.61,0
565,0.78,-0.02,0.61,0
566,0.78,-0.02,0.61,0
567,0.78,-0.02,0.6,0
568,0.79,-0.01,0.61,0
569,0.78,-0.01,0.6,0
570,0.77,-0.02,0.59,0
571,0.78,-0.01,0.6,0
572,0.78,-0.01,0.61,0
573,0.78,-0.02,0.6,0
574,0.78,-0.02,0.61,0
575,0.78,-0.01,0.61,0
576,0.78,-0.01,0.61,0
577,0.78,-0.01,0.6,0
578,0.78,-0.01,0.6,0
579,0.77,-0.01,0.6,0
580,0.78,-0.01,0.6,0
581,0.78,-0.01,0.61,0
582,0.78,-0.02,0.61,0
583,0.78,-0.02,0.6,0
584,0.78,-0.01,0.6,0
585,0.78,-0.01,0.61,0
586,0.78,-0.02,0.6,0
587,0.78,-0.02,0.6,0
588,0.78,-0.02,0.61,0
589,0.78,-0.02,0.61,0
590,0.78,-0.02,0.61,0
591,0.78,-0.02,0.61,0
592,0.78,-0.02,0.61,0
593,0.77,-0.02,0.61,0
594,0.78,-0.01,0.61,0
595,0.78,-0.02,0.6,0
596,0.77,-0.01,0.6,0
597,0.78,-0.02,0.61,0
598,0.79,-0.02,0.61,0
599,0.77,-0.02,0.61,0
600,0.78,-0.02,0.61,0
601,0.78,-0.01,0.6,0
602,0.78,-0.01,0.62,0
603,0.78,-0.02,0.6,0
604,0.76,0.0,0.61,0
605,0.78,-0.02,0.61,0
606,0.77,-0.01,0.62,0
607,0.79,-0.01,0.64,0
608,0.75,0.0,0.66,0
609,0.77,-0.01,0.65,0
610,0.75,0.0,0.65,0
611,0.75,-0.01,0.65,0
612,0.73,-0.01,0.64,0
613,0.73,0.0,0.65,0
614,0.75,0.0,0.66,0
615,0.75,-0.01,0.67,0
616,0.73,-0.01,0.66,0
617,0.75,0.0,0.68,0
618,0.73,-0.01,0.69,0
619,0.74,0.0,0.7,0
620,0.73,-0.01,0.67,0
621,0.74,0.01,0.67,0
622,0.75,-0.01,0.68,0
623,0.74,0.0,0.65,0
624,0.73,-0.01,0.62,0
625,0.76,0.01,0.64,0
626,0.75,-0.01,0.65,0
627,0.79,0.02,0.62,0
628,0.78,-0.02,0.66,0
629,0.77,-0.02,0.66,0
630,0.76,-0.01,0.63,0
631,0.77,-0.01,0.64,0
632,0.76,-0.01,0.62,0
633,0.76,-0.01,0.62,0
634,0.76,-0.01,0.62,0
635,0.76,0.0,0.63,0
636,0.76,0.0,0.63,0
637,0.76,-0.01,0.63,0
638,0.77,-0.01,0.63,0
639,0.76,-0.01,0.64,0
640,0.77,-0.01,0.64,0
641,0.77,-0.01,0.63,0
642,0.76,-0.01,0.63,0
643,0.77,-0.01,0.63,0
644,0.76,-0.01,0.62,0
645,0.76,-0.01,0.63,0
646,0.76,-0.01,0.63,0
647,0.75,0.0,0.64,0
648,0.79,-0.02,0.62,0
649,0.76,0.0,0.64,0
650,0.76,-0.01,0.65,1
651,0.76,-0.01,0.62,1
652,0.77,-0.01,0.61,1
653,0.76,0.0,0.64,1
654,0.76,0.0,0.65,1
655,0.76,-0.02,0.63,1
656,0.77,0.0,0.64,1
657,0.77,-0.01,0.64,1
658,0.77,-0.01,0.64,1
659,0.76,-0.01,0.63,1
660,0.76,-0.01,0.63,1
661,0.77,-0.01,0.63,1
662,0.77,-0.01,0.63,1
663,0.77,-0.01,0.63,1
664,0.76,-0.01,0.63,1
665,0.76,0.0,0.63,1
666,0.77,-0.02,0.62,1
667,0.79,0.0,0.69,1
668,0.85,0.0,0.9,1
669,0.89,-0.11,1.19,1
670,0.97,-0.2,1.52,1
671,1.3,-0.36,1.65,1
672,1.47,-0.36,1.61,1
673,1.38,-0.23,1.33,1
674,1.06,-0.12,0.86,1
675,0.7,-0.02,0.37,1
676,0.15,0.14,-0.01,1
677,-0.23,0.32,-0.16,1
678,-0.55,0.22,-0.41,1
679,-0.38,0.26,-0.48,1
680,-0.33,0.48,-0.31,1
681,-0.04,0.84,-0.05,1
682,0.36,0.95,0.4,1
683,0.73,1.1,0.87,1
684,1.42,0.93,1.22,1
685,1.6,0.61,1.72,1
686,1.92,0.06,1.6,1
687,1.75,0.21,1.96,1
688,1.32,0.5,2.35,1
689,1.35,0.49,2.11,1
690,1.46,0.65,1.81,1
691,1.49,0.61,1.44,1
692,1.15,0.58,0.8,1
693,0.46,0.27,0.13,1
694,0.0,0.01,-0.24,1
695,0.19,-0.11,-0.51,1
696,-0.19,-0.23,-0.75,1
697,-0.12,-0.36,-1.04,1
698,-0.03,-0.25,-1.1,1
699,0.04,-0.05,-0.97,1
700,0.36,0.25,-0.74,1
701,0.74,0.39,-0.14,1
702,1.22,0.59,1.13,1
703,1.47,0.47,1.77,1
704,1.24,0.58,1.92,1
705,1.31,0.5,1.86,1
706,1.1,0.47,1.59,1
707,0.78,0.33,1.48,1
708,0.73,0.24,1.18,1
709,0.68,0.12,0.79,1
710,0.68,0.0,0.49,1
711,0.66,0.02,0.43,1
712,0.87,-0.03,0.67,1
713,0.8,-0.06,0.75,1
714,0.75,-0.03,0.68,1
715,0.8,0.0,0.62,1
716,0.82,-0.03,0.64,1
717,0.77,-0.02,0.62,1
718,0.78,-0.02,0.59,1
719,0.77,-0.01,0.6,1
720,0.74,-0.01,0.62,1
721,0.77,-0.02,0.61,1
722,0.78,-0.01,0.6,1
723,0.76,-0.02,0.65,1
724,0.76,-0.02,0.65,1
725,0.75,-0.05,0.66,1
726,0.75,-0.02,0.6,1
727,0.77,-0.01,0.7,1
728,0.78,-0.03,0.69,1
729,0.76,0.02,0.69,1
730,0.75,-0.03,0.64,1
731,0.73,-0.11,0.58,1
732,0.77,0.08,0.51,1
733,0.73,-0.12,0.62,1
734,0.74,0.03,0.66,1
735,0.81,0.04,0.75,1
736,0.78,0.06,0.75,1
737,0.74,-0.12,0.63,1
738,0.77,0.01,0.54,1
739,0.74,-0.02,0.59,1
740,0.73,-0.01,0.65,1
741,0.78,0.0,0.64,1
742,0.79,0.0,0.61,1
743,0.77,-0.01,0.64,1
744,0.78,-0.03,0.63,1
745,0.76,-0.01,0.61,1
746,0.77,-0.02,0.6,1
747,0.77,-0.02,0.61,1
748,0.78,-0.01,0.63,1
749,0.78,-0.02,0.61,1
750,0.77,-0.01,0.61,0
751,0.76,-0.01,0.61,0
752,0.78,-0.01,0.6,0
753,0.78,-0.01,0.61,0
754,0.79,-0.01,0.61,0
755,0.77,-0.02,0.61,0
756,0.77,-0.01,0.61,0
757,0.79,-0.01,0.6,0
758,0.77,-0.02,0.6,0
759,0.78,-0.01,0.6,0
760,0.79,-0.01,0.61,0
761,0.78,-0.02,0.61,0
762,0.79,-0.01,0.6,0
763,0.8,-0.01,0.6,0
764,0.78,-0.01,0.6,0
765,0.77,-0.01,0.6,0
766,0.8,-0.01,0.6,0
767,0.79,-0.01,0.6,0
768,0.78,-0.02,0.6,0
769,0.79,-0.01,0.6,0
770,0.79,-0.01,0.61,0
771,0.78,-0.02,0.6,0
772,0.77,-0.01,0.6,0
773,0.8,-0.01,0.6,0
774,0.76,0.0,0.63,0
775,0.79,-0.01,0.61,0
776,0.78,-0.02,0.6,0
777,0.78,-0.02,0.59,0
778,0.8,-0.02,0.59,0
779,0.79,-0.02,0.59,0
780,0.78,0.0,0.6,0
781,0.8,-0.02,0.6,0
782,0.8,-0.01,0.6,0
783,0.8,-0.02,0.6,0
784,0.79,-0.02,0.59,0
785,0.81,-0.02,0.6,0
786,0.82,-0.02,0.6,0
787,0.78,-0.02,0.59,0
788,0.78,-0.01,0.59,0
789,0.8,-0.02,0.59,0
790,0.79,-0.01,0.6,0
791,0.79,-0.02,0.6,0
792,0.79,-0.02,0.59,0
793,0.8,-0.02,0.59,0
794,0.8,-0.03,0.59,0
795,0.79,-0.02,0.6,0
796,0.8,-0.02,0.6,0
797,0.8,-0.02,0.6,0
798,0.79,-0.02,0.59,0
799,0.79,-0.02,0.59,0
800,0.8,-0.01,0.59,0
801,0.81,-0.02,0.59,0
802,0.79,0.01,0.6,0
803,0.79,-0.01,0.6,0
804,0.8,-0.02,0.6,0
805,0.79,-0.02,0.59,0
806,0.8,-0.03,0.59,0
807,0.79,-0.02,0.59,0
808,0.79,-0.02,0.6,0
809,0.8,-0.02,0.6,0
810,0.79,-0.02,0.59,0
811,0.81,-0.02,0.6,0
812,0.8,-0.02,0.6,0
813,0.8,-0.02,0.59,0
814,0.79,-0.02,0.59,0
815,0.79,-0.02,0.59,0
816,0.8,-0.02,0.59,0
817,0.79,-0.02,0.59,0
818,0.79,-0.02,0.6,0
819,0.79,-0.03,0.6,0
820,0.79,-0.02,0.6,0
821,0.81,-0.03,0.6,0
822,0.78,-0.02,0.6,0
823,0.76,-0.01,0.6,0
824,0.78,-0.02,0.6,0
825,0.81,-0.01,0.6,0
826,0.78,-0.02,0.61,0
827,0.78,-0.02,0.62,0
828,0.78,-0.01,0.61,0
829,0.77,-0.02,0.61,0
830,0.78,-0.01,0.62,0
831,0.77,-0.02,0.62,0
832,0.77,-0.02,0.63,0
833,0.76,-0.02,0.62,0
834,0.78,-0.01,0.63,0
835,0.76,-0.02,0.63,0
836,0.75,-0.02,0.62,0
837,0.77,-0.01,0.63,0
838,0.77,-0.02,0.63,0
839,0.76,-0.02,0.63,0
840,0.76,-0.01,0.63,0
841,0.76,-0.02,0.64,0
842,0.76,-0.02,0.63,0
843,0.77,-0.02,0.63,0
844,0.76,-0.02,0.62,0
845,0.75,-0.02,0.63,0
846,0.76,-0.02,0.64,0
847,0.77,-0.02,0.63,0
848,0.76,-0.04,0.65,0
849,0.75,-0.01,0.63,0
850,0.76,-0.01,0.63,0
851,0.74,-0.01,0.64,0
852,0.74,-0.02,0.65,0
853,0.74,-0.01,0.66,0
854,0.76,-0.02,0.67,0
855,0.75,-0.01,0.67,0
856,0.76,-0.02,0.65,0
857,0.75,-0.02,0.64,0
858,0.75,-0.02,0.67,0
859,0.75,-0.03,0.66,0
860,0.75,-0.01,0.65,0
861,0.75,-0.02,0.65,0
862,0.74,-0.01,0.64,0
863,0.75,-0.01,0.63,0
864,0.75,-0.01,0.66,0
865,0.75,-0.01,0.68,0
866,0.76,-0.02,0.66,0
867,0.76,-0.02,0.66,0
868,0.75,-0.02,0.65,0
869,0.74,-0.02,0.66,0
870,0.75,-0.02,0.63,0
871,0.75,-0.02,0.63,0
872,0.74,-0.01,0.65,0
873,0.75,-0.04,0.62,0
874,0.75,-0.01,0.63,0
875,0.74,-0.01,0.69,0
876,0.76,-0.04,0.69,0
877,0.75,-0.03,0.63,0
878,0.74,-0.02,0.68,0
879,0.75,-0.02,0.65,0
880,0.74,-0.01,0.67,0
881,0.76,-0.04,0.65,0
882,0.74,-0.01,0.64,0
883,0.75,-0.02,0.67,0
884,0.73,0.02,0.71,0
885,0.75,-0.04,0.66,0
886,0.77,-0.02,0.59,0
887,0.74,-0.02,0.63,0
888,0.75,-0.02,0.62,0
889,0.77,-0.01,0.62,0
890,0.78,0.0,0.63,0
891,0.76,0.0,0.64,0
892,0.76,-0.02,0.61,0
893,0.81,-0.04,0.63,0
894,0.77,-0.01,0.62,0
895,0.77,-0.01,0.63,0
896,0.78,-0.01,0.62,0
897,0.77,-0.01,0.61,0
898,0.77,-0.01,0.62,0
899,0.77,-0.01,0.62,0
900,0.77,-0.01,0.62,1
901,0.77,-0.01,0.61,1
902,0.77,-0.01,0.62,1
903,0.78,-0.01,0.62,1
904,0.77,-0.01,0.63,1
905,0.78,-0.02,0.62,1
906,0.77,-0.01,0.61,1
907,0.77,-0.01,0.61,1
908,0.77,-0.01,0.61,1
909,0.77,-0.01,0.61,1
910,0.77,-0.01,0.62,1
911,0.77,-0.02,0.61,1
912,0.77,-0.01,0.61,1
913,0.78,-0.01,0.62,1
914,0.77,-0.01,0.62,1
915,0.78,-0.02,0.61,1
916,0.77,-0.01,0.61,1
917,0.77,-0.01,0.61,1
918,0.78,-0.01,0.62,1
919,0.84,0.01,0.71,1
920,0.75,-0.02,0.87,1
921,0.79,0.02,1.21,1
922,1.13,-0.23,1.54,1
923,1.54,-0.38,1.74,1
924,1.63,-0.36,1.54,1
925,1.58,-0.29,1.12,1
926,1.17,-0.12,0.63,1
927,0.63,0.05,0.14,1
928,0.08,0.22,-0.22,1
929,-0.17,0.37,-0.39,1
930,-0.45,0.29,-0.42,1
931,-0.66,0.33,-0.32,1
932,-0.44,0.56,-0.14,1
933,-0.24,0.78,0.02,1
934,0.23,0.91,0.42,1
935,1.07,0.93,0.69,1
936,1.46,0.88,1.16,1
937,1.72,0.56,1.53,1
938,2.16,-0.05,2.1,1
939,1.7,0.44,2.34,1
940,1.43,0.46,2.55,1
941,1.21,0.64,2.07,1
942,1.53,0.61,1.58,1
943,1.23,0.49,1.08,1
944,0.95,0.41,0.58,1
945,0.34,0.13,-0.01,1
946,-0.23,-0.18,-0.34,1
947,0.04,-0.28,-0.53,1
948,-0.18,-0.37,-0.67,1
949,-0.07,-0.4,-0.89,1
950,-0.06,-0.32,-0.96,1
951,0.12,-0.11,-0.84,1
952,0.49,0.15,-0.59,1
953,0.59,0.2,-0.04,1
954,1.16,0.59,0.97,1
955,1.22,0.47,1.56,1
956,1.37,0.59,1.68,1
957,1.32,0.51,1.63,1
958,1.13,0.47,1.56,1
959,0.86,0.39,1.42,1
960,0.79,0.25,1.09,1
961,0.77,0.12,0.83,1
962,0.76,0.02,0.63,1
963,0.76,-0.02,0.57,1
964,0.77,-0.05,0.53,1
965,0.74,-0.02,0.56,1
966,0.84,-0.04,0.61,1
967,0.85,-0.05,0.58,1
968,0.83,-0.06,0.56,1
969,0.85,-0.04,0.58,1
970,0.81,-0.03,0.6,1
971,0.83,-0.03,0.57,1
972,0.8,-0.02,0.56,1
973,0.84,-0.06,0.57,1
974,0.79,-0.01,0.57,1
975,0.84,-0.04,0.61,1
976,0.76,0.0,0.61,1
977,0.79,-0.04,0.6,1
978,0.81,-0.03,0.59,1
979,0.83,0.0,0.62,1
980,0.77,-0.03,0.62,1
981,0.82,-0.02,0.66,1
982,0.77,0.02,0.64,1
983,0.77,-0.08,0.57,1
984,0.8,-0.03,0.5,1
985,0.77,0.0,0.61,1
986,0.81,-0.01,0.59,1
987,0.81,0.0,0.67,1
988,0.8,-0.01,0.69,1
989,0.79,0.0,0.63,1
990,0.81,-0.04,0.58,1
991,0.79,-0.03,0.56,1
992,0.78,-0.01,0.58,1
993,0.77,-0.01,0.59,1
994,0.79,0.0,0.6,1
995,0.81,-0.01,0.59,1
996,0.82,-0.02,0.6,1
997,0.81,-0.02,0.6,1
998,0.8,-0.02,0.59,1
999,0.81,-0.01,0.59,1
1000,0.8,-0.01,0.59,0
1001,0.83,-0.01,0.59,0
1002,0.81,-0.01,0.59,0
1003,0.8,-0.02,0.58,0
1004,0.79,-0.02,0.59,0
1005,0.82,-0.01,0.58,0
1006,0.83,-0.02,0.57,0
1007,0.79,-0.02,0.58,0
1008,0.83,-0.02,0.59,0
1009,0.83,-0.02,0.58,0
1010,0.82,-0.02,0.57,0
1011,0.81,-0.01,0.57,0
1012,0.83,-0.01,0.56,0
1013,0.81,-0.02,0.56,0
1014,0.83,-0.02,0.57,0
1015,0.84,-0.02,0.57,0
1016,0.82,-0.02,0.56,0
1017,0.84,-0.02,0.57,0
1018,0.82,-0.02,0.56,0
1019,0.83,-0.02,0.56,0
1020,0.84,-0.02,0.56,0
1021,0.83,-0.02,0.57,0
1022,0.84,-0.02,0.55,0
1023,0.83,-0.02,0.56,0
1024,0.84,-0.02,0.57,0
1025,0.83,-0.03,0.57,0
1026,0.82,-0.02,0.56,0
1027,0.83,-0.02,0.55,0
1028,0.82,-0.02,0.56,0
1029,0.83,-0.03,0.57,0
1030,0.82,-0.02,0.57,0
1031,0.83,-0.02,0.56,0
1032,0.82,-0.03,0.56,0
1033,0.83,-0.03,0.57,0
1034,0.83,-0.04,0.57,0
1035,0.82,-0.03,0.55,0
1036,0.83,-0.03,0.55,0
1037,0.83,-0.03,0.55,0
1038,0.84,-0.04,0.55,0
1039,0.84,-0.04,0.56,0
1040,0.85,-0.04,0.56,0
1041,0.84,-0.04,0.57,0
1042,0.84,-0.04,0.56,0
1043,0.84,-0.05,0.56,0
1044,0.83,-0.03,0.55,0
1045,0.84,-0.04,0.55,0
1046,0.84,-0.04,0.56,0
1047,0.84,-0.04,0.55,0
1048,0.84,-0.04,0.54,0
1049,0.83,-0.03,0.54,0
1050,0.84,-0.05,0.54,0
1051,0.84,-0.04,0.54,0
1052,0.84,-0.04,0.55,0
1053,0.85,-0.04,0.56,0
1054,0.84,-0.04,0.56,0
1055,0.85,-0.05,0.56,0
1056,0.84,-0.05,0.56,0
1057,0.84,-0.05,0.56,0
1058,0.83,-0.05,0.55,0
1059,0.84,-0.05,0.54,0
1060,0.84,-0.05,0.55,0
1061,0.85,-0.05,0.55,0
1062,0.84,-0.04,0.55,0
1063,0.84,-0.06,0.56,0
1064,0.83,-0.05,0.55,0
1065,0.83,-0.04,0.56,0
1066,0.84,-0.05,0.56,0
1067,0.84,-0.04,0.56,0
1068,0.83,-0.05,0.56,0
1069,0.83,-0.05,0.56,0
1070,0.83,-0.04,0.56,0
1071,0.83,-0.05,0.56,0
1072,0.83,-0.04,0.56,0
1073,0.83,-0.06,0.57,0
1074,0.82,-0.05,0.57,0
1075,0.82,-0.06,0.56,0
1076,0.84,-0.05,0.56,0
1077,0.83,-0.05,0.57,0
1078,0.83,-0.05,0.57,0
1079,0.83,-0.05,0.57,0
1080,0.84,-0.05,0.57,0
1081,0.83,-0.05,0.57,0
1082,0.83,-0.05,0.57,0
1083,0.83,-0.05,0.56,0
1084,0.83,-0.04,0.57,0
1085,0.83,-0.05,0.57,0
1086,0.82,-0.05,0.57,0
1087,0.82,-0.05,0.56,0
1088,0.83,-0.05,0.57,0
1089,0.83,-0.05,0.57,0
1090,0.83,-0.05,0.58,0
1091,0.81,-0.06,0.57,0
1092,0.83,-0.05,0.56,0
1093,0.83,-0.04,0.57,0
1094,0.82,-0.05,0.57,0
1095,0.82,-0.05,0.57,0
1096,0.82,-0.05,0.57,0
1097,0.84,-0.05,0.57,0
1098,0.83,-0.05,0.58,0
1099,0.81,-0.05,0.57,0
1100,0.84,-0.05,0.57,0
1101,0.82,-0.05,0.57,0
1102,0.83,-0.05,0.57,0
1103,0.82,-0.05,0.57,0
1104,0.82,-0.05,0.58,0
1105,0.83,-0.05,0.58,0
1106,0.82,-0.06,0.58,0
1107,0.82,-0.05,0.58,0
1108,0.83,-0.05,0.57,0
1109,0.83,-0.04,0.57,0
1110,0.82,-0.05,0.57,0
1111,0.82,-0.05,0.58,0
1112,0.82,-0.05,0.58,0
1113,0.82,-0.05,0.57,0
1114,0.83,-0.05,0.57,0
1115,0.82,-0.05,0.58,0
1116,0.82,-0.06,0.57,0
1117,0.83,-0.06,0.58,0
1118,0.83,-0.05,0.58,0
1119,0.82,-0.05,0.57,0
1120,0.81,-0.05,0.57,0
1121,0.82,-0.05,0.57,0
1122,0.82,-0.05,0.58,0
1123,0.83,-0.05,0.58,0
1124,0.83,-0.05,0.58,0
1125,0.84,-0.05,0.57,0
1126,0.81,-0.05,0.57,0
1127,0.82,-0.05,0.57,0
1128,0.83,-0.05,0.57,0
1129,0.82,-0.06,0.57,0
1130,0.82,-0.05,0.58,0
1131,0.83,-0.05,0.58,0
1132,0.83,-0.04,0.58,0
1133,0.82,-0.05,0.57,0
1134,0.82,-0.05,0.57,0
1135,0.82,-0.05,0.58,0
1136,0.83,-0.05,0.57,0
1137,0.82,-0.05,0.57,0
1138,0.82,-0.06,0.57,0
1139,0.83,-0.06,0.57,0
1140,0.83,-0.06,0.58,0
1141,0.82,-0.06,0.58,0
1142,0.83,-0.06,0.57,0
1143,0.83,-0.05,0.57,0
1144,0.83,-0.05,0.57,0
1145,0.83,-0.05,0.57,0
1146,0.82,-0.05,0.57,0
1147,0.82,-0.06,0.57,0
1148,0.81,-0.05,0.56,0
1149,0.82,-0.04,0.55,0
1150,0.85,-0.04,0.57,0
1151,0.81,-0.1,0.58,0
1152,0.91,-0.03,0.55,0
1153,0.84,-0.05,0.57,0
1154,0.79,-0.06,0.56,0
1155,0.85,-0.06,0.57,0
1156,0.85,-0.05,0.58,0
1157,0.81,-0.03,0.58,0
1158,0.81,-0.02,0.57,0
1159,0.81,-0.02,0.56,0
1160,0.81,-0.04,0.56,0
1161,0.82,-0.04,0.56,0
1162,0.84,-0.05,0.57,0
1163,0.85,-0.06,0.57,0
1164,0.85,-0.04,0.58,0
1165,0.84,-0.04,0.58,0
1166,0.83,-0.02,0.57,0
1167,0.81,-0.02,0.56,0
1168,0.82,-0.03,0.55,0
1169,0.82,-0.02,0.55,0
1170,0.83,-0.03,0.55,0
1171,0.84,-0.02,0.56,0
1172,0.82,-0.01,0.57,0
1173,0.82,-0.02,0.57,0
1174,0.83,-0.03,0.57,0
1175,0.84,-0.03,0.57,0
1176,0.84,-0.02,0.58,0
1177,0.83,-0.04,0.58,0
1178,0.85,-0.04,0.56,0
1179,0.87,-0.02,0.54,0
1180,0.86,-0.02,0.53,0
1181,0.84,0.0,0.54,0
1182,0.84,0.0,0.55,0
1183,0.78,0.0,0.54,0
1184,0.78,0.0,0.54,0
1185,0.86,-0.01,0.58,0
1186,0.85,-0.03,0.59,0
1187,0.82,-0.03,0.57,0
1188,0.84,-0.02,0.55,0
1189,0.84,-0.01,0.56,0
1190,0.81,-0.01,0.56,0
1191,0.83,0.0,0.55,0
1192,0.84,-0.01,0.55,0
1193,0.82,-0.01,0.56,0
1194,0.81,-0.02,0.58,0
1195,0.83,-0.02,0.57,0
1196,0.84,-0.01,0.58,0
1197,0.81,-0.03,0.57,0
1198,0.82,-0.01,0.6,0
1199,0.79,-0.02,0.6,0
1200,0.81,-0.01,0.6,0
1201,0.78,-0.04,0.58,0
1202,0.79,0.01,0.6,0
1203,0.78,-0.04,0.6,0
1204,0.76,0.0,0.63,0
1205,0.78,-0.04,0.6,0
1206,0.77,-0.02,0.61,0
1207,0.8,-0.04,0.63,0
1208,0.75,-0.01,0.65,0
1209,0.77,0.0,0.66,0
1210,0.77,-0.04,0.62,0
1211,0.76,-0.02,0.65,0
1212,0.77,-0.01,0.64,0
1213,0.77,-0.02,0.66,0
1214,0.79,-0.04,0.62,0
1215,0.78,-0.02,0.58,0
1216,0.77,-0.03,0.56,0
1217,0.77,-0.03,0.6,0
1218,0.79,-0.02,0.6,0
1219,0.8,-0.01,0.6,0
1220,0.81,-0.02,0.6,0
1221,0.79,-0.01,0.6,0
1222,0.8,-0.02,0.59,0
1223,0.79,-0.01,0.6,0
1224,0.79,-0.02,0.6,0
1225,0.79,-0.01,0.59,1
1226,0.81,-0.01,0.6,1
1227,0.81,-0.02,0.6,1
1228,0.78,-0.01,0.6,1
1229,0.8,-0.01,0.59,1
1230,0.8,-0.01,0.6,1
1231,0.79,-0.01,0.6,1
1232,0.79,-0.01,0.59,1
1233,0.8,-0.02,0.59,1
1234,0.8,-0.01,0.6,1
1235,0.79,-0.02,0.59,1
1236,0.79,-0.01,0.59,1
1237,0.8,-0.01,0.6,1
1238,0.79,-0.02,0.6,1
1239,0.79,-0.01,0.59,1
1240,0.8,-0.01,0.59,1
1241,0.79,-0.01,0.6,1
1242,0.83,-0.01,0.65,1
1243,0.83,-0.01,0.78,1
1244,0.78,-0.02,1.02,1
1245,1.01,-0.13,1.33,1
1246,1.24,-0.23,1.57,1
1247,1.58,-0.21,1.59,1
1248,1.53,-0.14,1.32,1
1249,1.42,-0.17,0.89,1
1250,1.1,-0.13,0.47,1
1251,0.49,0.06,-0.02,1
1252,0.17,0.25,-0.36,1
1253,-0.32,0.25,-0.48,1
1254,-0.76,0.29,-0.45,1
1255,-0.67,0.51,-0.4,1
1256,-0.26,0.94,-0.34,1
1257,0.08,0.95,0.07,1
1258,0.65,0.98,0.45,1
1259,1.74,0.99,0.98,1
1260,1.91,0.85,1.57,1
1261,2.27,0.46,1.83,1
1262,1.81,0.37,2.2,1
1263,1.6,0.56,2.35,1
1264,1.3,0.61,2.01,1
1265,1.5,0.56,1.66,1
1266,1.39,0.52,1.21,1
1267,1.14,0.46,0.73,1
1268,0.52,0.32,-0.03,1
1269,-0.17,-0.03,-0.39,1
1270,0.06,-0.19,-0.69,1
1271,-0.33,-0.46,-0.91,1
1272,-0.01,-0.34,-1.02,1
1273,-0.03,-0.13,-0.9,1
1274,0.21,0.06,-0.69,1
1275,0.44,0.26,-0.35,1
1276,0.9,0.31,0.33,1
1277,1.09,0.55,1.4,1
1278,1.27,0.46,1.62,1
1279,1.34,0.46,1.6,1
1280,1.16,0.48,1.54,1
1281,1.18,0.45,1.44,1
1282,0.86,0.36,1.24,1
1283,0.74,0.21,0.92,1
1284,0.82,0.1,0.7,1
1285,0.81,0.03,0.55,1
1286,0.85,0.0,0.56,1
1287,0.85,0.0,0.57,1
1288,0.82,0.02,0.6,1
1289,0.86,0.04,0.58,1
1290,0.85,0.02,0.57,1
1291,0.84,0.03,0.55,1
1292,0.85,0.0,0.54,1
1293,0.82,0.01,0.55,1
1294,0.85,0.02,0.56,1
1295,0.83,0.03,0.57,1
1296,0.85,0.02,0.55,1
1297,0.82,0.0,0.54,1
1298,0.81,0.01,0.56,1
1299,0.81,0.03,0.57,1
1300,0.83,0.0,0.59,1
1301,0.73,0.04,0.59,1
1302,0.84,-0.02,0.5,1
1303,0.77,0.04,0.61,1
1304,0.86,0.03,0.68,1
1305,0.78,0.04,0.68,1
1306,0.8,-0.02,0.59,1
1307,0.85,-0.01,0.48,1
1308,0.73,0.05,0.56,1
1309,0.77,0.02,0.55,1
1310,0.78,0.06,0.61,1
1311,0.85,0.02,0.65,1
1312,0.82,0.02,0.66,1
1313,0.81,-0.01,0.56,1
1314,0.8,0.01,0.52,1
1315,0.83,0.02,0.58,1
1316,0.82,0.02,0.57,1
1317,0.84,0.02,0.54,1
1318,0.84,0.02,0.57,1
1319,0.85,0.01,0.57,1
1320,0.85,0.0,0.57,1
1321,0.84,0.01,0.55,1
1322,0.85,0.01,0.56,1
1323,0.83,0.0,0.55,1
1324,0.82,0.01,0.53,1
1325,0.84,0.01,0.54,0
1326,0.85,0.0,0.55,0
1327,0.84,0.0,0.56,0
1328,0.85,0.0,0.56,0
1329,0.84,-0.01,0.54,0
1330,0.83,0.0,0.55,0
1331,0.84,0.0,0.54,0
1332,0.85,0.0,0.54,0
1333,0.83,0.0,0.54,0
1334,0.85,-0.01,0.55,0
1335,0.84,0.0,0.55,0
1336,0.84,0.0,0.55,0
1337,0.84,0.0,0.54,0
1338,0.85,0.0,0.54,0
1339,0.84,0.0,0.54,0
1340,0.84,0.0,0.54,0
1341,0.85,0.0,0.55,0
1342,0.83,0.01,0.54,0
1343,0.85,-0.01,0.54,0
1344,0.84,-0.02,0.53,0
1345,0.84,-0.01,0.53,0
1346,0.84,0.0,0.54,0
1347,0.85,-0.01,0.54,0
1348,0.85,-0.01,0.54,0
1349,0.85,0.0,0.53,0
1350,0.85,-0.01,0.54,0
1351,0.85,-0.01,0.54,0
1352,0.85,-0.01,0.54,0
1353,0.85,-0.01,0.53,0
1354,0.85,-0.01,0.53,0
1355,0.85,-0.01,0.53,0
1356,0.85,-0.01,0.53,0
1357,0.85,-0.01,0.53,0
1358,0.85,-0.01,0.52,0
1359,0.85,-0.01,0.52,0
1360,0.85,-0.01,0.53,0
1361,0.84,-0.01,0.54,0
1362,0.85,-0.01,0.53,0
1363,0.85,-0.01,0.54,0
1364,0.85,-0.01,0.54,0
1365,0.85,-0.01,0.53,0
1366,0.85,-0.01,0.53,0
1367,0.85,-0.01,0.53,0
1368,0.85,-0.01,0.53,0
1369,0.85,-0.01,0.53,0
1370,0.85,-0.01,0.53,0
1371,0.85,-0.02,0.53,0
1372,0.85,-0.01,0.54,0
1373,0.85,-0.01,0.53,0
1374,0.85,-0.01,0.53,0
1375,0.85,-0.02,0.53,0
1376,0.84,-0.01,0.53,0
1377,0.85,-0.01,0.53,0
1378,0.85,-0.01,0.53,0
1379,0.85,-0.02,0.54,0
1380,0.85,-0.01,0.54,0
1381,0.85,-0.02,0.54,0
1382,0.84,-0.02,0.53,0
1383,0.85,-0.02,0.53,0
1384,0.84,-0.01,0.52,0
1385,0.85,-0.02,0.53,0
1386,0.84,-0.01,0.53,0
1387,0.85,-0.02,0.53,0
1388,0.84,-0.02,0.54,0
1389,0.85,-0.02,0.53,0
1390,0.85,-0.02,0.53,0
1391,0.85,-0.01,0.54,0
1392,0.84,-0.02,0.53,0
1393,0.85,-0.02,0.53,0
1394,0.85,-0.01,0.54,0
1395,0.85,-0.02,0.54,0
1396,0.85,-0.01,0.52,0
1397,0.85,-0.02,0.54,0
1398,0.85,-0.02,0.54,0
1399,0.85,-0.02,0.53,0
1400,0.85,-0.02,0.53,0
1401,0.85,-0.02,0.53,0
1402,0.85,-0.01,0.52,0
1403,0.85,-0.02,0.53,0
1404,0.85,-0.02,0.53,0
1405,0.85,-0.02,0.53,0
1406,0.85,-0.02,0.53,0
1407,0.85,-0.01,0.54,0
1408,0.85,-0.02,0.54,0
1409,0.85,-0.02,0.53,0
1410,0.85,-0.02,0.53,0
1411,0.85,-0.02,0.53,0
1412,0.85,-0.02,0.53,0
1413,0.85,-0.02,0.53,0
1414,0.85,-0.02,0.53,0
1415,0.85,-0.02,0.53,0
1416,0.85,-0.01,0.53,0
1417,0.85,-0.02,0.52,0
1418,0.84,-0.02,0.53,0
1419,0.85,-0.02,0.53,0
1420,0.85,-0.02,0.53,0
1421,0.85,-0.02,0.54,0
1422,0.85,-0.02,0.53,0
1423,0.85,-0.02,0.53,0
1424,0.84,-0.02,0.53,0
1425,0.85,-0.02,0.53,0
1426,0.85,-0.02,0.53,0
1427,0.85,-0.02,0.52,0
1428,0.85,-0.02,0.53,0
1429,0.85,-0.02,0.54,0
1430,0.85,-0.03,0.53,0
1431,0.85,-0.02,0.52,0
1432,0.85,-0.02,0.52,0
1433,0.84,-0.02,0.52,0
1434,0.85,-0.02,0.53,0
1435,0.85,-0.02,0.53,0
1436,0.85,-0.02,0.52,0
1437,0.85,-0.02,0.53,0
1438,0.85,-0.02,0.53,0
1439,0.85,-0.02,0.53,0
1440,0.85,-0.02,0.53,0
1441,0.85,-0.02,0.53,0
1442,0.85,-0.02,0.52,0
1443,0.85,-0.02,0.52,0
1444,0.85,-0.02,0.53,0
1445,0.85,-0.02,0.53,0
1446,0.85,-0.02,0.53,0
1447,0.85,-0.02,0.53,0
1448,0.85,-0.02,0.53,0
1449,0.85,-0.01,0.53,0
1450,0.85,-0.02,0.53,0
1451,0.85,-0.02,0.53,0
1452,0.85,-0.02,0.53,0
1453,0.85,-0.02,0.53,0
1454,0.85,-0.02,0.53,0
1455,0.85,-0.01,0.52,0
1456,0.85,-0.02,0.53,0
1457,0.85,-0.02,0.53,0
1458,0.85,-0.02,0.53,0
1459,0.85,-0.02,0.53,0
1460,0.85,-0.02,0.53,0
1461,0.85,-0.01,0.53,0
1462,0.85,-0.02,0.53,0
1463,0.85,-0.02,0.52,0
1464,0.85,-0.02,0.53,0
1465,0.85,-0.02,0.52,0
1466,0.85,-0.02,0.52,0
1467,0.85,-0.02,0.53,0
1468,0.85,-0.02,0.52,0
1469,0.85,-0.02,0.53,0
1470,0.85,-0.03,0.53,0
1471,0.85,-0.02,0.52,0
1472,0.85,-0.02,0.53,0
1473,0.85,-0.02,0.52,0
1474,0.85,-0.02,0.52,0
1475,0.85,-0.02,0.52,0
1476,0.85,-0.02,0.53,0
1477,0.85,-0.02,0.53,0
1478,0.85,-0.02,0.53,0
1479,0.85,-0.02,0.53,0
1480,0.85,-0.02,0.52,0
1481,0.84,-0.01,0.51,0
1482,0.84,-0.01,0.51,0
1483,0.86,-0.02,0.52,0
1484,0.85,-0.02,0.54,0
1485,0.85,-0.02,0.54,0
1486,0.86,-0.01,0.53,0
1487,0.84,-0.01,0.51,0
1488,0.82,-0.01,0.53,0
1489,0.84,0.0,0.54,0
1490,0.85,-0.01,0.54,0
1491,0.83,-0.01,0.53,0
1492,0.86,-0.01,0.56,0
1493,0.85,-0.02,0.54,0
1494,0.85,0.0,0.53,0
1495,0.84,-0.01,0.54,0
1496,0.85,-0.01,0.55,0
1497,0.84,-0.01,0.55,0
1498,0.84,-0.01,0.55,0
1499,0.84,0.0,0.55,0
1500,0.83,0.01,0.59,0
1501,0.83,-0.02,0.55,0
1502,0.84,-0.02,0.51,0
1503,0.83,-0.01,0.51,0
1504,0.84,-0.02,0.56,0
1505,0.84,-0.01,0.57,0
1506,0.85,-0.01,0.55,0
1507,0.85,-0.01,0.55,0
1508,0.84,-0.01,0.55,0
1509,0.84,-0.01,0.55,0
1510,0.84,-0.01,0.54,0
1511,0.83,0.0,0.55,0
1512,0.84,0.0,0.55,0
1513,0.85,-0.01,0.55,0
1514,0.84,-0.01,0.55,0
1515,0.85,-0.02,0.55,0
1516,0.84,-0.01,0.56,0
1517,0.84,-0.01,0.55,0
1518,0.83,-0.01,0.54,0
1519,0.84,-0.01,0.55,0
1520,0.84,-0.01,0.55,0
1521,0.84,-0.01,0.55,0
1522,0.85,-0.01,0.56,0
1523,0.84,-0.01,0.56,0
1524,0.84,-0.01,0.55,0
1525,0.84,-0.01,0.55,1
1526,0.84,-0.02,0.55,1
1527,0.84,-0.01,0.56,1
1528,0.83,0.0,0.55,1
1529,0.84,-0.01,0.55,1
1530,0.83,-0.01,0.55,1
1531,0.84,-0.01,0.56,1
1532,0.84,-0.01,0.56,1
1533,0.84,-0.01,0.55,1
1534,0.84,-0.01,0.56,1
1535,0.84,-0.01,0.56,1
1536,0.83,-0.01,0.54,1
1537,0.83,-0.01,0.55,1
1538,0.84,-0.01,0.56,1
1539,0.84,-0.01,0.55,1
1540,0.83,-0.01,0.55,1
1541,0.84,-0.01,0.55,1
1542,0.84,0.0,0.58,1
1543,0.73,-0.01,0.59,1
1544,0.87,-0.02,0.75,1
1545,0.93,0.02,1.11,1
1546,0.98,-0.06,1.42,1
1547,1.45,-0.22,1.62,1
1548,1.75,-0.24,1.47,1
1549,1.59,-0.24,1.18,1
1550,1.45,-0.24,0.73,1
1551,1.02,-0.11,0.25,1
1552,0.41,0.01,-0.11,1
1553,-0.03,0.16,-0.26,1
1554,-0.39,0.16,-0.39,1
1555,-0.53,0.18,-0.32,1
1556,-0.61,0.24,-0.19,1
1557,-0.43,0.45,-0.11,1
1558,-0.19,0.73,0.02,1
1559,0.35,0.81,0.32,1
1560,0.83,0.94,0.82,1
1561,1.23,0.78,1.1,1
1562,1.87,0.45,1.2,1
1563,2.16,0.11,1.67,1
1564,1.92,0.39,2.25,1
1565,1.54,0.64,2.57,1
1566,1.32,0.78,2.15,1
1567,1.67,0.68,1.76,1
1568,1.49,0.52,1.29,1
1569,1.16,0.47,0.8,1
1570,0.52,0.34,-0.01,1
1571,-0.23,0.09,-0.51,1
1572,0.28,-0.02,-0.74,1
1573,-0.25,-0.2,-0.92,1
1574,-0.04,-0.37,-1.06,1
1575,-0.1,-0.24,-0.97,1
1576,0.13,-0.03,-0.86,1
1577,0.39,0.1,-0.65,1
1578,0.7,0.31,-0.25,1
1579,1.11,0.39,0.82,1
1580,1.32,0.73,1.4,1
1581,1.53,0.59,1.85,1
1582,1.22,0.83,1.96,1
1583,1.29,0.65,1.8,1
1584,0.95,0.5,1.47,1
1585,0.77,0.29,1.06,1
1586,0.74,0.09,0.74,1
1587,0.75,-0.01,0.52,1
1588,0.8,-0.01,0.5,1
1589,0.82,0.01,0.52,1
1590,0.79,0.02,0.59,1
1591,0.81,0.04,0.61,1
1592,0.82,0.05,0.62,1
1593,0.83,0.02,0.59,1
1594,0.84,0.0,0.56,1
1595,0.85,0.0,0.58,1
1596,0.79,0.0,0.58,1
1597,0.81,0.02,0.58,1
1598,0.79,0.01,0.58,1
1599,0.85,0.01,0.57,1
1600,0.78,0.02,0.57,1
1601,0.85,0.01,0.57,1
1602,0.79,0.0,0.57,1
1603,0.85,0.03,0.57,1
1604,0.82,0.01,0.57,1
1605,0.82,0.0,0.57,1
1606,0.81,0.02,0.57,1
1607,0.82,0.0,0.59,1
1608,0.81,0.03,0.59,1
1609,0.8,0.0,0.58,1
1610,0.77,0.02,0.59,1
1611,0.83,0.01,0.6,1
1612,0.81,0.0,0.62,1
1613,0.81,0.02,0.64,1
1614,0.78,0.01,0.58,1
1615,0.78,-0.03,0.49,1
1616,0.78,0.03,0.57,1
1617,0.75,0.05,0.59,1
1618,0.79,0.01,0.61,1
1619,0.83,0.0,0.61,1
1620,0.84,0.02,0.6,1
1621,0.83,0.0,0.58,1
1622,0.81,0.01,0.56,1
1623,0.79,0.03,0.56,1
1624,0.8,0.02,0.55,1
1625,0.82,0.03,0.57,0
1626,0.83,0.0,0.56,0
1627,0.83,0.0,0.57,0
1628,0.84,0.0,0.58,0
1629,0.84,-0.01,0.59,0
1630,0.85,0.0,0.59,0
1631,0.83,0.0,0.54,0
1632,0.83,0.0,0.56,0
1633,0.83,0.0,0.57,0
1634,0.84,0.0,0.56,0
1635,0.83,0.0,0.55,0
1636,0.83,0.0,0.55,0
1637,0.83,0.01,0.56,0
1638,0.83,0.0,0.55,0
1639,0.84,0.0,0.56,0
1640,0.84,0.0,0.58,0
1641,0.83,-0.01,0.56,0
1642,0.83,0.0,0.55,0
1643,0.85,0.0,0.56,0
1644,0.84,0.0,0.57,0
1645,0.83,0.0,0.54,0
1646,0.84,0.0,0.54,0
1647,0.83,-0.01,0.56,0
1648,0.85,0.0,0.55,0
1649,0.85,0.0,0.55,0
1650,0.85,0.0,0.55,0
1651,0.85,-0.01,0.54,0
1652,0.84,0.0,0.55,0
1653,0.84,0.0,0.56,0
1654,0.84,0.0,0.55,0
1655,0.84,0.0,0.54,0
1656,0.84,0.0,0.54,0
1657,0.85,0.0,0.54,0
1658,0.85,0.0,0.56,0
1659,0.85,0.0,0.55,0
1660,0.85,0.0,0.55,0
1661,0.85,0.0,0.54,0
1662,0.85,0.0,0.54,0
1663,0.84,-0.01,0.53,0
1664,0.83,0.0,0.54,0
1665,0.84,0.01,0.53,0
1666,0.85,0.0,0.52,0
1667,0.85,-0.01,0.53,0
1668,0.85,0.0,0.53,0
1669,0.85,0.0,0.51,0
1670,0.85,0.0,0.53,0
1671,0.85,0.01,0.54,0
1672,0.85,-0.01,0.52,0
1673,0.85,0.0,0.51,0
1674,0.86,-0.01,0.5,0
1675,0.85,0.0,0.51,0
1676,0.86,0.0,0.5,0
1677,0.85,-0.01,0.49,0
1678,0.86,0.0,0.5,0
1679,0.86,0.0,0.5,0
1680,0.86,-0.01,0.51,0
1681,0.86,-0.01,0.51,0
1682,0.87,0.0,0.5,0
1683,0.87,0.0,0.49,0
1684,0.86,0.0,0.49,0
1685,0.86,-0.01,0.49,0
1686,0.86,-0.01,0.49,0
1687,0.85,-0.01,0.48,0
1688,0.86,-0.01,0.49,0
1689,0.86,0.0,0.5,0
1690,0.86,-0.01,0.49,0
1691,0.86,-0.01,0.49,0
1692,0.86,0.0,0.5,0
1693,0.86,0.0,0.49,0
1694,0.87,0.01,0.5,0
1695,0.87,0.01,0.5,0
1696,0.87,0.0,0.49,0
1697,0.87,0.0,0.49,0
1698,0.88,0.01,0.48,0
1699,0.88,0.02,0.48,0
1700,0.87,0.01,0.48,0
1701,0.85,0.01,0.48,0
1702,0.85,0.0,0.48,0
1703,0.86,0.0,0.47,0
1704,0.88,0.0,0.48,0
1705,0.87,0.0,0.47,0
1706,0.87,-0.01,0.48,0
1707,0.86,-0.01,0.48,0
1708,0.87,-0.01,0.49,0
1709,0.87,0.0,0.48,0
1710,0.86,0.0,0.48,0
1711,0.86,0.01,0.48,0
1712,0.86,0.01,0.47,0
1713,0.86,0.01,0.47,0
1714,0.87,0.0,0.48,0
1715,0.87,0.0,0.48,0
1716,0.88,0.0,0.48,0
1717,0.89,0.0,0.47,0
1718,0.88,0.0,0.48,0
1719,0.88,0.0,0.47,0
1720,0.88,0.0,0.47,0
1721,0.88,0.0,0.47,0
1722,0.88,-0.01,0.47,0
1723,0.89,-0.01,0.47,0
1724,0.89,0.0,0.47,0
1725,0.87,0.0,0.47,0
1726,0.87,0.0,0.47,0
1727,0.88,0.0,0.47,0
1728,0.89,0.0,0.48,0
1729,0.9,-0.01,0.48,0
1730,0.88,-0.01,0.48,0
1731,0.86,-0.01,0.47,0
1732,0.86,0.0,0.46,0
1733,0.86,0.0,0.47,0
1734,0.86,0.0,0.47,0
1735,0.86,0.0,0.48,0
1736,0.86,-0.01,0.49,0
1737,0.86,-0.01,0.5,0
1738,0.86,0.0,0.51,0
1739,0.86,0.0,0.49,0
1740,0.85,-0.01,0.48,0
1741,0.85,0.0,0.48,0
1742,0.86,0.0,0.48,0
1743,0.87,-0.01,0.49,0
1744,0.86,-0.01,0.49,0
1745,0.86,-0.01,0.5,0
1746,0.86,0.0,0.5,0
1747,0.86,0.0,0.5,0
1748,0.87,0.0,0.49,0
1749,0.87,0.0,0.49,0
1750,0.86,0.0,0.5,0
1751,0.86,-0.01,0.49,0
1752,0.86,0.0,0.49,0
1753,0.86,0.0,0.49,0
1754,0.87,0.0,0.49,0
1755,0.86,0.0,0.49,0
1756,0.86,-0.01,0.5,0
1757,0.86,-0.01,0.49,0
1758,0.86,0.0,0.49,0
1759,0.86,0.0,0.49,0
1760,0.86,0.0,0.48,0
1761,0.86,0.0,0.49,0
1762,0.88,-0.01,0.48,0
1763,0.86,0.0,0.48,0
1764,0.86,-0.01,0.49,0
1765,0.86,-0.01,0.49,0
1766,0.87,0.0,0.49,0
1767,0.86,-0.01,0.48,0
1768,0.85,0.01,0.49,0
1769,0.86,-0.01,0.49,0
1770,0.86,0.0,0.49,0
1771,0.86,-0.01,0.49,0
1772,0.85,0.0,0.5,0
1773,0.85,0.01,0.53,0
1774,0.86,-0.02,0.51,0
1775,0.85,0.0,0.55,0
1776,0.85,0.0,0.53,0
1777,0.85,-0.02,0.53,0
1778,0.84,0.0,0.54,0
1779,0.85,0.01,0.56,0
1780,0.84,-0.01,0.53,0
1781,0.79,0.01,0.56,0
1782,0.85,0.0,0.57,0
1783,0.84,-0.02,0.55,0
1784,0.85,-0.01,0.57,0
1785,0.84,0.0,0.55,0
1786,0.83,-0.02,0.5,0
1787,0.85,0.01,0.53,0
1788,0.85,-0.01,0.54,0
1789,0.83,-0.01,0.53,0
1790,0.85,0.0,0.53,0
1791,0.85,0.0,0.52,0
1792,0.85,0.0,0.53,0
1793,0.85,-0.01,0.53,0
1794,0.85,0.0,0.54,0
1795,0.85,-0.01,0.53,0
1796,0.85,0.0,0.53,0
1797,0.85,0.0,0.54,0
1798,0.85,0.0,0.53,0
1799,0.85,0.0,0.54,0
1800,0.85,0.0,0.53,1
1801,0.85,0.0,0.53,1
1802,0.85,0.0,0.53,1
1803,0.84,0.0,0.53,1
1804,0.85,0.0,0.53,1
1805,0.85,0.0,0.54,1
1806,0.85,-0.01,0.54,1
1807,0.85,0.0,0.53,1
1808,0.85,0.0,0.53,1
1809,0.85,0.0,0.52,1
1810,0.85,0.0,0.53,1
1811,0.85,0.0,0.53,1
1812,0.85,0.0,0.53,1
1813,0.85,0.0,0.53,1
1814,0.85,0.0,0.53,1
1815,0.85,0.0,0.54,1
1816,0.85,0.0,0.52,1
1817,0.85,0.0,0.56,1
1818,0.93,0.03,0.62,1
1819,0.92,0.06,0.86,1
1820,0.8,0.09,1.23,1
1821,1.24,-0.16,1.51,1
1822,1.82,-0.34,1.7,1
1823,1.85,-0.22,1.41,1
1824,1.82,-0.16,0.98,1
1825,1.35,-0.07,0.39,1
1826,0.67,0.04,-0.08,1
1827,0.13,0.22,-0.42,1
1828,-0.3,0.29,-0.69,1
1829,-0.71,0.37,-0.79,1
1830,-0.73,0.54,-0.6,1
1831,-0.2,1.02,-0.43,1
1832,0.11,1.05,-0.06,1
1833,0.82,1.07,0.45,1
1834,1.43,1.07,1.02,1
1835,2.08,0.82,1.78,1
1836,2.11,0.5,2.12,1
1837,1.9,0.38,2.59,1
1838,1.5,0.5,2.64,1
1839,1.3,0.5,1.92,1
1840,1.57,0.45,1.47,1
1841,1.29,0.33,1.02,1
1842,0.77,0.14,0.62,1
1843,0.53,0.05,0.07,1
1844,-0.23,-0.17,-0.23,1
1845,0.47,-0.2,-0.44,1
1846,-0.12,-0.4,-0.61,1
1847,0.02,-0.41,-0.85,1
1848,0.08,-0.36,-0.97,1
1849,0.31,-0.03,-0.86,1
1850,0.71,0.08,-0.46,1
1851,0.71,0.34,0.37,1
1852,1.15,0.37,1.28,1
1853,1.24,0.51,1.53,1
1854,1.46,0.49,1.58,1
1855,1.27,0.5,1.52,1
1856,1.12,0.43,1.38,1
1857,0.82,0.36,1.22,1
1858,0.82,0.22,0.94,1
1859,0.79,0.1,0.61,1
1860,0.79,0.01,0.5,1
1861,0.91,-0.06,0.53,1
1862,0.87,-0.08,0.51,1
1863,0.81,-0.02,0.48,1
1864,0.87,0.02,0.51,1
1865,0.9,0.02,0.51,1
1866,0.86,-0.01,0.49,1
1867,0.86,-0.01,0.47,1
1868,0.91,-0.03,0.5,1
1869,0.86,-0.02,0.49,1
1870,0.87,-0.01,0.48,1
1871,0.87,-0.02,0.49,1
1872,0.87,-0.02,0.48,1
1873,0.85,-0.02,0.47,1
1874,0.88,-0.01,0.53,1
1875,0.85,-0.05,0.49,1
1876,0.85,0.01,0.49,1
1877,0.84,-0.03,0.52,1
1878,0.87,-0.02,0.54,1
1879,0.85,-0.04,0.59,1
1880,0.83,0.05,0.59,1
1881,0.85,-0.04,0.53,1
1882,0.82,-0.07,0.39,1
1883,0.81,0.01,0.46,1
1884,0.86,-0.04,0.59,1
1885,0.85,0.0,0.59,1
1886,0.85,-0.01,0.6,1
1887,0.85,0.05,0.61,1
1888,0.86,-0.1,0.49,1
1889,0.85,0.0,0.46,1
1890,0.84,0.0,0.48,1
1891,0.82,0.0,0.53,1
1892,0.86,-0.01,0.51,1
1893,0.86,-0.01,0.52,1
1894,0.87,-0.02,0.53,1
1895,0.87,-0.02,0.52,1
1896,0.85,-0.01,0.5,1
1897,0.86,-0.01,0.49,1
1898,0.87,-0.02,0.5,1
1899,0.85,-0.02,0.49,1
1900,0.86,-0.02,0.48,0
1901,0.86,-0.01,0.49,0
1902,0.86,-0.02,0.5,0
1903,0.85,-0.01,0.49,0
1904,0.87,-0.01,0.49,0
1905,0.87,-0.01,0.5,0
1906,0.86,-0.02,0.5,0
1907,0.86,-0.02,0.49,0
1908,0.86,-0.01,0.49,0
1909,0.86,-0.02,0.49,0
1910,0.86,-0.02,0.5,0
1911,0.86,-0.02,0.5,0
1912,0.86,-0.02,0.49,0
1913,0.86,-0.02,0.49,0
1914,0.86,-0.02,0.5,0
1915,0.86,-0.02,0.49,0
1916,0.86,-0.02,0.49,0
1917,0.87,-0.02,0.49,0
1918,0.86,-0.02,0.49,0
1919,0.9,-0.03,0.49,0
1920,0.85,-0.01,0.49,0
1921,0.82,0.0,0.53,0
1922,0.85,-0.02,0.49,0
1923,0.9,-0.03,0.47,0
1924,0.9,-0.04,0.47,0
1925,0.86,-0.03,0.48,0
1926,0.86,-0.03,0.48,0
1927,0.86,-0.02,0.48,0
1928,0.87,-0.02,0.48,0
1929,0.9,-0.01,0.48,0
1930,0.86,-0.02,0.48,0
1931,0.87,-0.01,0.48,0
1932,0.85,-0.04,0.48,0
1933,0.87,-0.02,0.48,0
1934,0.88,-0.01,0.48,0
1935,0.86,-0.02,0.48,0
1936,0.87,-0.02,0.48,0
1937,0.86,-0.01,0.48,0
1938,0.86,-0.01,0.48,0
1939,0.87,-0.01,0.48,0
1940,0.87,-0.02,0.48,0
1941,0.86,-0.02,0.49,0
1942,0.88,-0.01,0.49,0
1943,0.86,-0.01,0.49,0
1944,0.86,-0.01,0.49,0
1945,0.86,-0.01,0.48,0
1946,0.86,-0.02,0.48,0
1947,0.86,-0.02,0.48,0
1948,0.86,-0.03,0.48,0
1949,0.87,-0.04,0.48,0
1950,0.88,-0.04,0.48,0
1951,0.87,-0.03,0.48,0
1952,0.87,-0.03,0.48,0
1953,0.86,-0.02,0.48,0
1954,0.86,-0.02,0.49,0
1955,0.86,-0.02,0.48,0
1956,0.86,-0.02,0.48,0
1957,0.86,-0.03,0.48,0
1958,0.87,-0.04,0.48,0
1959,0.86,-0.03,0.48,0
1960,0.86,-0.04,0.48,0
1961,0.86,-0.03,0.48,0
1962,0.86,-0.03,0.48,0
1963,0.86,-0.03,0.48,0
1964,0.87,-0.02,0.49,0
1965,0.87,-0.02,0.48,0
1966,0.86,-0.03,0.48,0
1967,0.86,-0.02,0.48,0
1968,0.87,-0.02,0.48,0
1969,0.86,-0.03,0.48,0
1970,0.87,-0.02,0.49,0
1971,0.87,-0.02,0.48,0
1972,0.86,-0.03,0.48,0
1973,0.86,-0.03,0.48,0
1974,0.86,-0.03,0.48,0
1975,0.87,-0.03,0.48,0
1976,0.86,-0.03,0.48,0
1977,0.87,-0.03,0.48,0
1978,0.86,-0.03,0.49,0
1979,0.86,-0.02,0.48,0
1980,0.86,-0.02,0.48,0
1981,0.86,-0.02,0.48,0
1982,0.86,-0.02,0.48,0
1983,0.86,-0.02,0.48,0
1984,0.86,-0.03,0.49,0
1985,0.87,-0.03,0.48,0
1986,0.86,-0.03,0.48,0
1987,0.86,-0.02,0.48,0
1988,0.86,-0.02,0.48,0
1989,0.86,-0.02,0.49,0
1990,0.87,-0.02,0.48,0
1991,0.86,-0.03,0.48,0
1992,0.86,-0.03,0.48,0
1993,0.86,-0.02,0.48,0
1994,0.86,-0.02,0.48,0
1995,0.86,-0.02,0.49,0
1996,0.86,-0.02,0.48,0
1997,0.87,-0.02,0.48,0
1998,0.86,-0.02,0.48,0
1999,0.86,-0.03,0.48,0
2000,0.86,-0.03,0.48,0
2001,0.86,-0.03,0.48,0
2002,0.87,-0.03,0.49,0
2003,0.86,-0.03,0.48,0
2004,0.86,-0.03,0.48,0
2005,0.86,-0.03,0.49,0
2006,0.86,-0.02,0.48,0
2007,0.86,-0.02,0.48,0
2008,0.86,-0.02,0.49,0
2009,0.86,-0.02,0.48,0
2010,0.86,-0.02,0.48,0
2011,0.86,-0.02,0.48,0
2012,0.86,-0.02,0.49,0
2013,0.86,-0.03,0.48,0
2014,0.86,-0.02,0.49,0
2015,0.86,-0.03,0.49,0
2016,0.86,-0.03,0.49,0
2017,0.86,-0.03,0.49,0
2018,0.86,-0.03,0.49,0
2019,0.86,-0.02,0.49,0
2020,0.86,-0.02,0.48,0
2021,0.86,-0.03,0.48,0
2022,0.86,-0.02,0.48,0
2023,0.86,-0.02,0.49,0
2024,0.86,-0.03,0.48,0
2025,0.86,-0.03,0.48,0
2026,0.86,-0.02,0.48,0
2027,0.86,-0.03,0.49,0
2028,0.87,-0.02,0.49,0
2029,0.86,-0.02,0.48,0
2030,0.87,-0.02,0.49,0
2031,0.86,-0.02,0.5,0
2032,0.87,-0.03,0.49,0
2033,0.86,0.0,0.49,0
2034,0.86,-0.01,0.53,0
2035,0.86,-0.02,0.53,0
2036,0.86,-0.01,0.53,0
2037,0.83,-0.03,0.53,0
2038,0.83,0.0,0.58,0
2039,0.84,0.0,0.56,0
2040,0.83,-0.01,0.54,0
2041,0.8,0.0,0.56,0
2042,0.84,-0.01,0.55,0
2043,0.83,-0.01,0.57,0
2044,0.84,0.01,0.59,0
2045,0.87,0.02,0.5,0
2046,0.81,-0.02,0.51,0
2047,0.85,-0.03,0.51,0
2048,0.86,-0.01,0.52,0
2049,0.85,-0.02,0.54,0
2050,0.86,-0.01,0.55,0
2051,0.86,-0.01,0.53,0
2052,0.85,-0.02,0.51,0
2053,0.85,-0.01,0.52,0
2054,0.85,-0.01,0.52,0
2055,0.85,-0.01,0.52,0
2056,0.86,-0.01,0.51,0
2057,0.85,-0.01,0.51,0
2058,0.85,-0.02,0.52,0
2059,0.86,-0.01,0.52,0
2060,0.85,-0.02,0.53,0
2061,0.86,-0.02,0.52,0
2062,0.85,-0.01,0.53,0
2063,0.85,-0.01,0.51,0
2064,0.85,-0.01,0.51,0
2065,0.85,-0.01,0.52,0
2066,0.85,-0.02,0.52,0
2067,0.86,-0.01,0.52,0
2068,0.85,-0.02,0.52,0
2069,0.85,-0.02,0.52,0
2070,0.85,-0.01,0.52,0
2071,0.85,-0.02,0.51,0
2072,0.85,-0.01,0.51,0
2073,0.85,-0.02,0.51,0
2074,0.85,-0.01,0.52,0
2075,0.85,-0.02,0.52,1
2076,0.85,-0.02,0.52,1
2077,0.85,-0.02,0.52,1
2078,0.86,-0.01,0.53,1
2079,0.85,-0.02,0.52,1
2080,0.85,-0.01,0.52,1
2081,0.86,-0.01,0.5,1
2082,0.85,-0.01,0.51,1
2083,0.85,-0.01,0.52,1
2084,0.86,-0.01,0.51,1
2085,0.85,-0.01,0.52,1
2086,0.86,-0.01,0.51,1
2087,0.86,-0.02,0.51,1
2088,0.85,-0.02,0.53,1
2089,0.85,-0.01,0.52,1
2090,0.85,-0.01,0.51,1
2091,0.85,-0.01,0.51,1
2092,0.86,-0.01,0.53,1
2093,0.81,0.06,0.55,1
2094,0.85,-0.01,0.61,1
2095,0.83,0.02,0.69,1
2096,0.85,0.07,0.87,1
2097,0.99,0.0,1.26,1
2098,1.48,-0.16,1.56,1
2099,1.79,-0.2,1.58,1
2100,1.83,-0.23,1.34,1
2101,1.85,-0.28,0.85,1
2102,1.35,-0.18,0.37,1
2103,0.79,0.09,0.0,1
2104,0.11,0.38,-0.28,1
2105,-0.4,0.41,-0.47,1
2106,-0.67,0.19,-0.56,1
2107,-0.8,0.33,-0.46,1
2108,-0.67,0.49,-0.35,1
2109,-0.44,0.71,-0.27,1
2110,0.05,0.87,0.17,1
2111,0.73,0.83,0.63,1
2112,1.34,0.87,1.18,1
2113,1.94,0.6,1.28,1
2114,1.78,0.35,1.63,1
2115,1.82,0.49,1.89,1
2116,1.61,0.61,2.42,1
2117,1.62,0.75,2.34,1
2118,1.68,0.75,1.84,1
2119,1.58,0.65,1.49,1
2120,1.41,0.6,0.8,1
2121,0.78,0.48,0.1,1
2122,0.1,0.08,-0.33,1
2123,0.22,0.03,-0.55,1
2124,-0.19,-0.26,-0.73,1
2125,-0.32,-0.42,-0.88,1
2126,-0.22,-0.38,-1.08,1
2127,-0.14,-0.28,-0.99,1
2128,0.14,0.05,-0.89,1
2129,0.58,0.24,-0.53,1
2130,0.86,0.37,0.22,1
2131,1.22,0.6,1.3,1
2132,1.12,0.55,1.72,1
2133,1.25,0.48,1.8,1
2134,1.33,0.39,1.55,1
2135,1.1,0.37,1.43,1
2136,0.91,0.26,1.28,1
2137,0.83,0.15,1.01,1
2138,0.81,0.07,0.75,1
2139,0.85,-0.01,0.67,1
2140,0.82,0.0,0.6,1
2141,0.78,0.01,0.58,1
2142,0.82,0.02,0.58,1
2143,0.81,0.0,0.58,1
2144,0.8,0.0,0.57,1
2145,0.87,-0.02,0.56,1
2146,0.83,-0.01,0.56,1
2147,0.85,-0.02,0.56,1
2148,0.83,-0.01,0.56,1
2149,0.84,-0.01,0.57,1
2150,0.84,-0.01,0.57,1
2151,0.82,-0.01,0.56,1
2152,0.86,-0.02,0.54,1
2153,0.84,-0.02,0.53,1
2154,0.85,-0.02,0.53,1
2155,0.84,-0.02,0.53,1
2156,0.82,0.0,0.57,1
2157,0.85,-0.01,0.59,1
2158,0.85,-0.04,0.54,1
2159,0.78,0.0,0.53,1
2160,0.84,-0.03,0.51,1
2161,0.74,0.0,0.6,1
2162,0.85,0.0,0.61,1
2163,0.82,0.0,0.6,1
2164,0.85,-0.02,0.58,1
2165,0.78,0.0,0.59,1
2166,0.84,-0.01,0.61,1
2167,0.82,0.0,0.61,1
2168,0.85,-0.02,0.61,1
2169,0.78,-0.01,0.53,1
2170,0.78,0.0,0.51,1
2171,0.76,0.0,0.54,1
2172,0.77,0.06,0.55,1
2173,0.76,0.0,0.67,1
2174,0.82,0.04,0.7,1
2175,0.83,-0.02,0.65,1
2176,0.79,-0.04,0.55,1
2177,0.83,-0.01,0.52,1
2178,0.83,0.0,0.56,1
2179,0.79,0.0,0.58,1
2180,0.83,0.0,0.57,1
2181,0.84,0.01,0.56,1
2182,0.85,-0.01,0.55,1
2183,0.84,-0.01,0.55,1
2184,0.84,0.0,0.55,1
2185,0.84,-0.01,0.54,1
2186,0.86,-0.01,0.54,1
2187,0.85,-0.01,0.55,1
2188,0.84,-0.01,0.55,1
2189,0.85,-0.01,0.55,1
2190,0.84,-0.01,0.54,1
2191,0.85,-0.01,0.54,1
2192,0.85,0.0,0.54,1
2193,0.84,-0.01,0.54,1
2194,0.84,-0.01,0.54,1
2195,0.85,0.0,0.54,1
2196,0.85,-0.01,0.53,1
2197,0.84,-0.02,0.54,1
2198,0.85,-0.01,0.53,1
2199,0.85,-0.01,0.53,1
2200,0.84,-0.02,0.53,0
2201,0.85,-0.02,0.54,0
2202,0.85,-0.01,0.53,0
2203,0.85,-0.02,0.53,0
2204,0.84,-0.02,0.53,0
2205,0.85,-0.01,0.53,0
2206,0.85,-0.01,0.52,0
2207,0.85,-0.01,0.53,0
2208,0.85,-0.01,0.53,0
2209,0.85,-0.01,0.53,0
2210,0.85,-0.01,0.52,0
2211,0.85,-0.02,0.52,0
2212,0.85,-0.02,0.54,0
2213,0.86,-0.01,0.53,0
2214,0.85,-0.01,0.53,0
2215,0.85,-0.01,0.53,0
2216,0.85,-0.01,0.53,0
2217,0.85,-0.01,0.53,0
2218,0.85,-0.01,0.53,0
2219,0.85,-0.01,0.52,0
2220,0.85,-0.02,0.53,0
2221,0.85,-0.01,0.54,0
2222,0.85,-0.02,0.53,0
2223,0.84,-0.01,0.54,0
2224,0.85,-0.02,0.53,0
2225,0.85,-0.02,0.53,0
2226,0.84,-0.02,0.52,0
2227,0.85,-0.01,0.53,0
2228,0.85,-0.02,0.53,0
2229,0.85,-0.02,0.53,0
2230,0.85,-0.01,0.53,0
2231,0.85,-0.02,0.54,0
2232,0.85,-0.01,0.54,0
2233,0.85,-0.02,0.53,0
2234,0.84,-0.02,0.54,0
2235,0.85,-0.01,0.53,0
2236,0.84,-0.02,0.53,0
2237,0.85,-0.02,0.53,0
2238,0.85,-0.02,0.54,0
2239,0.85,-0.01,0.53,0
2240,0.85,-0.02,0.53,0
2241,0.84,-0.01,0.54,0
2242,0.84,-0.02,0.54,0
2243,0.85,-0.01,0.53,0
2244,0.85,-0.02,0.54,0
2245,0.85,-0.01,0.54,0
2246,0.84,-0.01,0.53,0
2247,0.85,-0.01,0.54,0
2248,0.85,-0.02,0.54,0
2249,0.84,-0.01,0.54,0
2250,0.85,-0.01,0.55,0
2251,0.84,-0.02,0.55,0
2252,0.84,-0.01,0.55,0
2253,0.85,-0.01,0.54,0
2254,0.85,-0.02,0.56,0
2255,0.84,-0.03,0.55,0
2256,0.85,-0.02,0.54,0
2257,0.84,-0.01,0.54,0
2258,0.83,-0.01,0.55,0
2259,0.84,-0.01,0.54,0
2260,0.84,-0.02,0.54,0
2261,0.84,-0.02,0.55,0
2262,0.85,-0.01,0.57,0
2263,0.84,-0.03,0.57,0
2264,0.83,-0.02,0.57,0
2265,0.83,-0.02,0.57,0
2266,0.83,-0.02,0.56,0
2267,0.82,-0.02,0.56,0
2268,0.83,-0.01,0.55,0
2269,0.82,-0.02,0.57,0
2270,0.82,-0.02,0.57,0
2271,0.84,-0.02,0.58,0
2272,0.83,-0.02,0.57,0
2273,0.82,-0.02,0.56,0
2274,0.83,-0.01,0.57,0
2275,0.83,-0.02,0.56,0
2276,0.82,-0.02,0.55,0
2277,0.83,-0.02,0.56,0
2278,0.83,-0.02,0.58,0
2279,0.83,-0.02,0.58,0
2280,0.84,-0.03,0.56,0
2281,0.85,-0.03,0.57,0
2282,0.83,-0.02,0.56,0
2283,0.85,-0.01,0.53,0
2284,0.83,-0.01,0.55,0
2285,0.83,-0.01,0.55,0
2286,0.83,-0.01,0.54,0
2287,0.85,0.01,0.54,0
2288,0.85,-0.02,0.55,0
2289,0.84,-0.02,0.56,0
2290,0.85,-0.01,0.54,0
2291,0.85,-0.01,0.53,0
2292,0.84,-0.01,0.53,0
2293,0.85,-0.02,0.53,0
2294,0.84,-0.01,0.54,0
2295,0.85,-0.02,0.55,0
2296,0.85,-0.02,0.53,0
2297,0.85,-0.02,0.53,0
2298,0.85,-0.02,0.54,0
2299,0.85,-0.01,0.54,0
2300,0.85,-0.02,0.53,0
2301,0.85,-0.02,0.53,0
2302,0.85,-0.01,0.53,0
2303,0.85,-0.02,0.54,0
2304,0.85,-0.02,0.54,0
2305,0.85,-0.01,0.53,0
2306,0.85,-0.02,0.55,0
2307,0.85,-0.02,0.54,0
2308,0.85,-0.02,0.52,0
2309,0.85,-0.02,0.53,0
2310,0.85,-0.02,0.53,0
2311,0.84,-0.01,0.53,0
2312,0.85,-0.02,0.54,0
2313,0.85,-0.02,0.53,0
2314,0.84,-0.02,0.53,0
2315,0.85,-0.01,0.54,0
2316,0.84,-0.02,0.54,0
2317,0.85,-0.01,0.54,0
2318,0.85,-0.02,0.53,0
2319,0.85,-0.02,0.53,0
2320,0.85,-0.02,0.54,0
2321,0.85,-0.02,0.53,0
2322,0.84,-0.02,0.53,0
2323,0.85,-0.02,0.54,0
2324,0.85,-0.02,0.54,0
2325,0.85,-0.02,0.53,0
2326,0.85,-0.02,0.53,0
2327,0.85,-0.01,0.53,0
2328,0.85,-0.01,0.52,0
2329,0.85,-0.02,0.53,0
2330,0.85,-0.02,0.53,0
2331,0.85,-0.02,0.54,0
2332,0.85,-0.02,0.53,0
2333,0.85,-0.02,0.52,0
2334,0.85,-0.02,0.53,0
2335,0.85,-0.02,0.52,0
2336,0.85,-0.02,0.52,0
2337,0.85,-0.02,0.53,0
2338,0.85,-0.02,0.53,0
2339,0.85,-0.02,0.53,0
2340,0.85,-0.02,0.54,0
2341,0.84,-0.02,0.52,0
2342,0.85,-0.02,0.52,0
2343,0.85,-0.02,0.53,0
2344,0.85,-0.02,0.52,0
2345,0.85,-0.02,0.53,0
2346,0.86,-0.04,0.54,0
2347,0.85,-0.01,0.54,0
2348,0.85,-0.02,0.56,0
2349,0.85,-0.02,0.53,0
2350,0.85,-0.01,0.55,0
2351,0.84,-0.03,0.56,0
2352,0.83,-0.01,0.57,0
2353,0.82,-0.01,0.57,0
2354,0.83,-0.01,0.56,0
2355,0.8,-0.03,0.53,0
2356,0.79,0.01,0.55,0
2357,0.85,-0.01,0.59,0
2358,0.81,-0.04,0.59,0
2359,0.83,-0.02,0.58,0
2360,0.84,-0.03,0.6,0
2361,0.85,-0.03,0.56,0
2362,0.88,-0.01,0.52,0
2363,0.8,-0.02,0.53,0
2364,0.85,-0.02,0.53,0
2365,0.84,-0.02,0.53,0
2366,0.84,-0.01,0.54,0
2367,0.85,-0.02,0.55,0
2368,0.85,-0.02,0.55,0
2369,0.85,-0.02,0.54,0
2370,0.85,-0.02,0.54,0
2371,0.85,-0.02,0.53,0
2372,0.84,-0.01,0.53,0
2373,0.85,-0.01,0.54,0
2374,0.85,-0.02,0.53,0
2375,0.85,-0.01,0.53,1
2376,0.85,-0.02,0.53,1
2377,0.85,-0.01,0.54,1
2378,0.84,-0.02,0.53,1
2379,0.85,-0.02,0.54,1
2380,0.85,-0.02,0.54,1
2381,0.85,-0.02,0.53,1
2382,0.84,-0.01,0.54,1
2383,0.85,-0.01,0.52,1
2384,0.84,-0.01,0.53,1
2385,0.84,-0.02,0.53,1
2386,0.85,-0.01,0.54,1
2387,0.85,-0.02,0.53,1
2388,0.85,-0.02,0.54,1
2389,0.85,-0.02,0.55,1
2390,0.84,-0.02,0.53,1
2391,0.85,-0.01,0.54,1
2392,0.82,-0.01,0.56,1
2393,0.88,0.03,0.74,1
2394,0.86,0.01,1.02,1
2395,0.95,-0.09,1.38,1
2396,1.39,-0.25,1.62,1
2397,1.79,-0.29,1.52,1
2398,1.67,-0.27,1.23,1
2399,1.53,-0.23,0.85,1
2400,1.19,-0.13,0.39,1
2401,0.46,0.0,-0.04,1
2402,0.04,0.16,-0.26,1
2403,-0.48,0.21,-0.5,1
2404,-0.58,0.17,-0.56,1
2405,-0.67,0.45,-0.47,1
2406,-0.27,0.74,-0.31,1
2407,-0.2,0.96,-0.06,1
2408,0.44,1.02,0.19,1
2409,1.01,1.15,1.03,1
2410,1.91,0.92,1.28,1
2411,2.11,0.33,1.46,1
2412,2.01,0.29,1.92,1
2413,1.91,0.6,2.66,1
2414,1.68,0.73,2.5,1
2415,1.75,0.63,1.88,1
2416,1.65,0.54,1.32,1
2417,1.26,0.39,0.88,1
2418,0.57,0.32,0.14,1
2419,0.07,0.01,-0.42,1
2420,-0.2,0.0,-0.62,1
2421,-0.13,-0.15,-0.91,1
2422,-0.15,-0.33,-1.17,1
2423,0.08,-0.13,-1.26,1
2424,0.13,0.02,-1.08,1
2425,0.39,0.41,-0.87,1
2426,0.89,0.5,-0.18,1
2427,1.24,0.59,1.02,1
2428,1.55,0.54,1.59,1
2429,1.59,0.37,1.54,1
2430,1.37,0.47,1.56,1
2431,1.31,0.37,1.45,1
2432,1.02,0.38,1.33,1
2433,0.87,0.31,1.12,1
2434,0.93,0.22,0.9,1
2435,0.92,0.07,0.64,1
2436,0.9,-0.02,0.47,1
2437,0.85,-0.05,0.43,1
2438,0.84,-0.03,0.42,1
2439,0.84,-0.02,0.45,1
2440,0.88,-0.02,0.47,1
2441,0.92,0.01,0.5,1
2442,0.91,-0.01,0.52,1
2443,0.9,-0.01,0.53,1
2444,0.89,-0.01,0.5,1
2445,0.86,-0.01,0.48,1
2446,0.88,-0.01,0.47,1
2447,0.86,-0.01,0.47,1
2448,0.86,-0.02,0.47,1
2449,0.86,0.0,0.48,1
2450,0.87,-0.04,0.51,1
2451,0.85,-0.04,0.48,1
2452,0.9,-0.01,0.48,1
2453,0.84,-0.04,0.49,1
2454,0.85,-0.03,0.48,1
2455,0.86,0.0,0.51,1
2456,0.89,-0.04,0.52,1
2457,0.87,-0.06,0.54,1
2458,0.88,0.03,0.58,1
2459,0.86,-0.06,0.48,1
2460,0.85,-0.04,0.42,1
2461,0.84,0.01,0.52,1
2462,0.86,-0.03,0.54,1
2463,0.84,-0.02,0.5,1
2464,0.88,-0.04,0.53,1
2465,0.88,-0.02,0.57,1
2466,0.86,0.05,0.56,1
2467,0.85,-0.06,0.48,1
2468,0.83,0.0,0.47,1
2469,0.85,0.0,0.47,1
2470,0.85,-0.01,0.49,1
2471,0.86,-0.02,0.49,1
2472,0.87,-0.02,0.49,1
2473,0.87,-0.03,0.49,1
2474,0.87,-0.04,0.5,1
2475,0.85,-0.03,0.5,0
2476,0.86,-0.03,0.49,0
2477,0.86,-0.03,0.48,0
2478,0.86,-0.03,0.49,0
2479,0.85,-0.03,0.48,0
2480,0.86,-0.03,0.48,0
2481,0.87,-0.02,0.49,0
2482,0.86,-0.03,0.48,0
2483,0.87,-0.02,0.48,0
2484,0.87,-0.03,0.48,0
2485,0.86,-0.02,0.48,0
2486,0.87,-0.04,0.47,0
2487,0.87,-0.03,0.48,0
2488,0.87,-0.02,0.48,0
2489,0.87,-0.04,0.48,0
2490,0.87,-0.04,0.47,0
2491,0.86,-0.03,0.48,0
2492,0.86,-0.04,0.48,0
2493,0.88,-0.03,0.48,0
2494,0.86,-0.04,0.48,0
2495,0.87,-0.03,0.48,0
2496,0.87,-0.03,0.48,0
2497,0.87,-0.04,0.48,0
2498,0.87,-0.03,0.48,0
2499,0.87,-0.04,0.47,0
2500,0.87,-0.03,0.47,0
2501,0.88,-0.03,0.48,0
2502,0.87,-0.03,0.48,0
2503,0.87,-0.03,0.48,0
2504,0.86,-0.03,0.48,0
2505,0.87,-0.03,0.48,0
2506,0.88,-0.03,0.48,0
2507,0.86,-0.03,0.48,0
2508,0.86,-0.03,0.48,0
2509,0.87,-0.03,0.48,0
2510,0.86,-0.04,0.47,0
2511,0.86,-0.04,0.47,0
2512,0.86,-0.03,0.48,0
2513,0.87,-0.03,0.48,0
2514,0.87,-0.03,0.48,0
2515,0.87,-0.04,0.49,0
2516,0.87,-0.05,0.49,0
2517,0.86,-0.03,0.49,0
2518,0.87,-0.02,0.48,0
2519,0.86,-0.03,0.48,0
2520,0.86,-0.03,0.49,0
2521,0.86,-0.03,0.48,0
2522,0.86,-0.03,0.48,0
2523,0.86,-0.04,0.49,0
2524,0.86,-0.03,0.49,0
2525,0.86,-0.03,0.48,0
2526,0.86,-0.03,0.49,0
2527,0.86,-0.04,0.5,0
2528,0.86,-0.03,0.49,0
2529,0.84,-0.01,0.48,0
2530,0.86,-0.05,0.48,0
2531,0.9,-0.01,0.47,0
2532,0.86,-0.01,0.47,0
2533,0.86,-0.02,0.48,0
2534,0.88,-0.05,0.49,0
2535,0.9,-0.05,0.5,0
2536,0.88,-0.01,0.5,0
2537,0.85,0.0,0.5,0
2538,0.85,0.0,0.49,0
2539,0.85,0.0,0.48,0
2540,0.85,-0.02,0.48,0
2541,0.86,-0.04,0.48,0
2542,0.89,-0.04,0.48,0
2543,0.91,-0.05,0.48,0
2544,0.9,-0.04,0.48,0
2545,0.87,-0.02,0.48,0
2546,0.87,-0.01,0.48,0
2547,0.86,0.0,0.47,0
2548,0.86,0.0,0.48,0
2549,0.86,-0.01,0.47,0
2550,0.87,-0.02,0.47,0
2551,0.88,-0.03,0.47,0
2552,0.88,-0.02,0.47,0
2553,0.88,-0.02,0.46,0
2554,0.87,-0.01,0.47,0
2555,0.86,0.0,0.48,0
2556,0.89,0.0,0.48,0
2557,0.87,-0.01,0.48,0
2558,0.88,-0.01,0.49,0
2559,0.88,0.0,0.5,0
2560,0.87,-0.01,0.5,0
2561,0.88,-0.02,0.5,0
2562,0.87,-0.02,0.49,0
2563,0.89,-0.02,0.49,0
2564,0.87,0.0,0.49,0
2565,0.85,0.0,0.49,0
2566,0.85,0.0,0.51,0
2567,0.83,0.0,0.52,0
2568,0.85,0.0,0.52,0
2569,0.83,0.01,0.53,0
2570,0.84,-0.01,0.54,0
2571,0.83,-0.01,0.53,0
2572,0.83,-0.01,0.53,0
2573,0.84,-0.01,0.54,0
2574,0.85,-0.02,0.54,0
2575,0.85,-0.01,0.56,0
2576,0.84,-0.01,0.56,0
2577,0.84,0.0,0.57,0
2578,0.84,0.0,0.57,0
2579,0.83,-0.01,0.57,0
2580,0.84,0.0,0.57,0
2581,0.8,-0.01,0.57,0
2582,0.83,-0.02,0.58,0
2583,0.82,0.0,0.58,0
2584,0.78,-0.01,0.58,0
2585,0.8,-0.01,0.58,0
2586,0.8,-0.01,0.59,0
2587,0.81,-0.01,0.6,0
2588,0.79,-0.02,0.6,0
2589,0.79,-0.02,0.6,0
2590,0.79,-0.01,0.59,0
2591,0.78,-0.01,0.59,0
2592,0.79,-0.01,0.6,0
2593,0.77,-0.01,0.61,0
2594,0.78,0.0,0.61,0
2595,0.78,-0.01,0.61,0
2596,0.77,-0.01,0.61,0
2597,0.78,-0.01,0.62,0
2598,0.77,-0.01,0.62,0
2599,0.77,-0.01,0.63,0
2600,0.78,-0.01,0.62,0
2601,0.76,-0.01,0.61,0
2602,0.76,0.0,0.62,0
2603,0.77,-0.01,0.62,0
2604,0.77,-0.02,0.63,0
2605,0.78,0.0,0.65,0
2606,0.77,-0.01,0.66,0
2607,0.77,-0.01,0.66,0
2608,0.75,0.0,0.64,0
2609,0.75,-0.01,0.61,0
2610,0.81,0.01,0.61,0
2611,0.75,-0.01,0.61,0
2612,0.8,0.0,0.61,0
2613,0.77,-0.01,0.6,0
2614,0.77,-0.01,0.62,0
2615,0.79,-0.01,0.62,0
2616,0.78,-0.01,0.61,0
2617,0.78,-0.01,0.62,0
2618,0.78,-0.01,0.61,0
2619,0.78,0.0,0.61,0
2620,0.78,-0.01,0.61,0
2621,0.79,0.0,0.61,0
2622,0.78,-0.01,0.61,0
2623,0.79,-0.01,0.61,0
2624,0.79,-0.01,0.61,0
2625,0.78,-0.01,0.61,1
2626,0.79,0.0,0.6,1
2627,0.78,-0.01,0.61,1
2628,0.77,-0.01,0.61,1
2629,0.78,-0.01,0.61,1
2630,0.79,-0.01,0.61,1
2631,0.78,-0.01,0.61,1
2632,0.78,-0.01,0.61,1
2633,0.79,0.0,0.61,1
2634,0.79,-0.01,0.6,1
2635,0.78,-0.01,0.62,1
2636,0.78,0.0,0.61,1
2637,0.78,-0.01,0.61,1
2638,0.78,0.0,0.61,1
2639,0.78,-0.01,0.61,1
2640,0.77,0.0,0.62,1
2641,0.79,-0.02,0.63,1
2642,0.78,0.03,0.7,1
2643,0.78,0.0,0.9,1
2644,0.85,0.0,1.26,1
2645,1.21,-0.17,1.54,1
2646,1.63,-0.3,1.64,1
2647,1.65,-0.28,1.46,1
2648,1.57,-0.25,1.03,1
2649,1.2,-0.17,0.59,1
2650,0.77,-0.07,0.2,1
2651,0.11,0.0,-0.11,1
2652,-0.14,0.21,-0.25,1
2653,-0.5,0.24,-0.43,1
2654,-0.6,0.3,-0.42,1
2655,-0.56,0.53,-0.32,1
2656,-0.37,0.78,-0.24,1
2657,0.07,0.98,0.08,1
2658,0.71,1.06,0.36,1
2659,1.39,1.11,1.06,1
2660,2.21,0.8,1.67,1
2661,2.15,0.4,2.46,1
2662,1.79,0.73,2.77,1
2663,1.41,0.71,2.42,1
2664,1.46,0.67,1.76,1
2665,1.55,0.56,1.38,1
2666,1.05,0.44,0.89,1
2667,0.62,0.24,0.32,1
2668,0.06,-0.08,-0.22,1
2669,-0.07,-0.23,-0.45,1
2670,-0.14,-0.33,-0.63,1
2671,-0.23,-0.4,-0.77,1
2672,-0.03,-0.37,-0.9,1
2673,0.04,-0.22,-0.84,1
2674,0.27,0.03,-0.76,1
2675,0.55,0.15,-0.3,1
2676,0.78,0.36,0.57,1
2677,0.95,0.53,1.53,1
2678,1.28,0.34,1.57,1
2679,1.1,0.43,1.59,1
2680,1.32,0.37,1.43,1
2681,1.09,0.37,1.37,1
2682,0.87,0.22,1.32,1
2683,0.78,0.18,1.04,1
2684,0.76,0.1,0.71,1
2685,0.76,0.01,0.58,1
2686,0.72,-0.01,0.55,1
2687,0.8,0.01,0.62,1
2688,0.81,-0.01,0.66,1
2689,0.82,0.0,0.63,1
2690,0.86,-0.01,0.62,1
2691,0.83,-0.03,0.6,1
2692,0.77,-0.01,0.61,1
2693,0.76,0.0,0.61,1
2694,0.78,-0.01,0.61,1
2695,0.79,0.03,0.6,1
2696,0.76,-0.01,0.59,1
2697,0.79,-0.02,0.6,1
2698,0.77,-0.06,0.6,1
2699,0.82,0.01,0.6,1
2700,0.8,0.0,0.6,1
2701,0.82,0.01,0.62,1
2702,0.8,-0.01,0.62,1
2703,0.77,0.02,0.62,1
2704,0.78,-0.02,0.62,1
2705,0.75,0.02,0.62,1
2706,0.74,-0.02,0.64,1
2707,0.74,0.03,0.62,1
2708,0.76,0.01,0.67,1
2709,0.79,0.0,0.7,1
2710,0.75,-0.02,0.72,1
2711,0.75,-0.01,0.63,1
2712,0.74,-0.04,0.59,1
2713,0.74,0.05,0.62,1
2714,0.74,0.03,0.69,1
2715,0.73,0.01,0.65,1
2716,0.75,-0.02,0.67,1
2717,0.78,0.03,0.73,1
2718,0.75,-0.01,0.67,1
2719,0.78,-0.02,0.61,1
2720,0.76,0.0,0.59,1
2721,0.74,0.0,0.63,1
2722,0.77,0.0,0.63,1
2723,0.77,0.0,0.63,1
2724,0.78,0.0,0.65,1
2725,0.77,-0.01,0.62,0
2726,0.77,0.0,0.62,0
2727,0.77,0.0,0.61,0
2728,0.77,-0.01,0.63,0
2729,0.77,-0.02,0.62,0
2730,0.78,-0.02,0.63,0
2731,0.79,-0.02,0.62,0
2732,0.77,-0.02,0.61,0
2733,0.77,-0.01,0.61,0
2734,0.77,-0.01,0.61,0
2735,0.77,-0.01,0.62,0
2736,0.77,-0.01,0.62,0
2737,0.78,-0.02,0.61,0
2738,0.78,-0.01,0.61,0
2739,0.78,0.0,0.62,0
2740,0.79,-0.02,0.62,0
2741,0.78,-0.01,0.62,0
2742,0.78,0.0,0.62,0
2743,0.79,-0.02,0.6,0
2744,0.78,-0.01,0.6,0
2745,0.78,-0.01,0.61,0
2746,0.78,-0.01,0.61,0
2747,0.78,-0.01,0.61,0
2748,0.78,-0.02,0.6,0
2749,0.79,-0.02,0.6,0
2750,0.78,-0.01,0.61,0
2751,0.78,-0.02,0.62,0
2752,0.79,-0.01,0.61,0
2753,0.79,-0.01,0.61,0
2754,0.78,-0.01,0.61,0
2755,0.77,-0.01,0.61,0
2756,0.78,-0.01,0.61,0
2757,0.78,-0.02,0.61,0
2758,0.78,-0.01,0.61,0
2759,0.78,-0.02,0.61,0
2760,0.78,-0.01,0.61,0
2761,0.78,-0.02,0.62,0
2762,0.77,-0.02,0.62,0
2763,0.78,-0.02,0.61,0
2764,0.78,-0.01,0.62,0
2765,0.76,-0.02,0.6,0
2766,0.77,-0.01,0.62,0
2767,0.77,-0.01,0.63,0
2768,0.77,-0.02,0.62,0
2769,0.78,-0.02,0.62,0
2770,0.78,-0.02,0.62,0
2771,0.77,-0.02,0.62,0
2772,0.77,-0.02,0.62,0
2773,0.77,-0.01,0.62,0
2774,0.77,-0.02,0.62,0
2775,0.77,-0.02,0.62,0
2776,0.77,-0.02,0.61,0
2777,0.77,-0.01,0.62,0
2778,0.76,-0.02,0.61,0
2779,0.78,-0.02,0.62,0
2780,0.78,-0.02,0.61,0
2781,0.77,0.0,0.61,0
2782,0.78,0.0,0.61,0
2783,0.78,0.0,0.62,0
2784,0.78,-0.01,0.61,0
2785,0.77,-0.02,0.62,0
2786,0.79,-0.01,0.61,0
2787,0.79,-0.02,0.61,0
2788,0.78,-0.02,0.61,0
2789,0.78,-0.01,0.6,0
2790,0.78,-0.01,0.6,0
2791,0.78,-0.01,0.61,0
2792,0.79,-0.02,0.62,0
2793,0.78,-0.02,0.61,0
2794,0.78,-0.02,0.61,0
2795,0.78,-0.01,0.6,0
2796,0.78,-0.01,0.6,0
2797,0.78,-0.01,0.61,0
2798,0.78,-0.01,0.61,0
2799,0.78,-0.02,0.61,0
2800,0.78,-0.02,0.61,0
2801,0.79,-0.02,0.6,0
2802,0.79,-0.02,0.61,0
2803,0.78,-0.02,0.61,0
2804,0.78,-0.03,0.61,0
2805,0.79,-0.02,0.6,0
2806,0.79,-0.02,0.6,0
2807,0.78,-0.02,0.61,0
2808,0.78,-0.02,0.6,0
2809,0.79,-0.02,0.6,0
2810,0.8,-0.03,0.61,0
2811,0.79,-0.02,0.61,0
2812,0.78,-0.02,0.6,0
2813,0.79,-0.02,0.6,0
2814,0.78,-0.02,0.6,0
2815,0.79,-0.03,0.6,0
2816,0.79,-0.02,0.6,0
2817,0.79,-0.03,0.6,0
2818,0.78,-0.02,0.6,0
2819,0.79,-0.02,0.6,0
2820,0.79,-0.03,0.6,0
2821,0.79,-0.02,0.6,0
2822,0.78,-0.02,0.61,0
2823,0.79,-0.02,0.6,0
2824,0.79,-0.02,0.6,0
2825,0.79,-0.02,0.61,0
2826,0.79,-0.03,0.6,0
2827,0.79,-0.02,0.6,0
2828,0.79,-0.02,0.61,0
2829,0.8,-0.02,0.61,0
2830,0.78,-0.02,0.6,0
2831,0.79,-0.02,0.6,0
2832,0.79,-0.02,0.6,0
2833,0.78,-0.02,0.6,0
2834,0.79,-0.02,0.6,0
2835,0.79,-0.01,0.6,0
2836,0.79,-0.02,0.61,0
2837,0.79,-0.02,0.61,0
2838,0.79,-0.02,0.6,0
2839,0.78,-0.02,0.6,0
2840,0.79,-0.02,0.6,0
2841,0.79,-0.02,0.6,0
2842,0.79,-0.03,0.61,0
2843,0.79,-0.02,0.61,0
2844,0.78,-0.02,0.6,0
2845,0.78,-0.02,0.6,0
2846,0.78,-0.02,0.61,0
2847,0.79,-0.04,0.61,0
2848,0.78,-0.02,0.63,0
2849,0.82,-0.04,0.63,0
2850,0.77,-0.02,0.61,0
2851,0.79,-0.01,0.62,0
2852,0.76,-0.01,0.65,0
2853,0.76,-0.04,0.62,0
2854,0.74,0.0,0.63,0
2855,0.77,-0.04,0.63,0
2856,0.74,0.01,0.67,0
2857,0.75,-0.04,0.66,0
2858,0.76,-0.02,0.66,0
2859,0.74,-0.02,0.68,0
2860,0.73,0.02,0.7,0
2861,0.76,-0.02,0.65,0
2862,0.76,-0.02,0.59,0
2863,0.76,-0.02,0.6,0
2864,0.76,-0.01,0.64,0
2865,0.78,-0.02,0.64,0
2866,0.78,-0.01,0.63,0
2867,0.78,-0.02,0.63,0
2868,0.77,-0.02,0.62,0
2869,0.77,-0.01,0.61,0
2870,0.77,-0.02,0.61,0
2871,0.77,-0.01,0.63,0
2872,0.77,-0.01,0.62,0
2873,0.78,-0.02,0.62,0
2874,0.77,-0.01,0.63,0
2875,0.77,-0.01,0.61,1
2876,0.77,-0.02,0.62,1
2877,0.77,-0.02,0.63,1
2878,0.77,-0.02,0.62,1
2879,0.78,-0.02,0.62,1
2880,0.77,-0.02,0.62,1
2881,0.77,-0.01,0.62,1
2882,0.77,-0.02,0.61,1
2883,0.77,-0.02,0.62,1
2884,0.78,-0.01,0.62,1
2885,0.77,-0.02,0.63,1
2886,0.77,-0.01,0.63,1
2887,0.77,-0.01,0.62,1
2888,0.78,-0.02,0.61,1
2889,0.76,-0.01,0.64,1
2890,0.74,0.01,0.63,1
2891,0.76,-0.01,0.71,1
2892,0.78,0.01,0.92,1
2893,0.68,0.01,1.22,1
2894,1.04,-0.15,1.5,1
2895,1.69,-0.37,1.71,1
2896,1.78,-0.36,1.53,1
2897,1.87,-0.34,1.11,1
2898,1.47,-0.15,0.61,1
2899,0.99,-0.12,0.19,1
2900,0.47,0.21,-0.22,1
2901,-0.27,0.37,-0.35,1
2902,-0.51,0.27,-0.39,1
2903,-0.79,0.23,-0.3,1
2904,-0.81,0.41,-0.18,1
2905,-0.55,0.66,-0.12,1
2906,-0.32,0.86,-0.05,1
2907,0.25,0.87,0.21,1
2908,0.98,0.75,0.59,1
2909,1.64,0.55,1.22,1
2910,1.79,0.35,1.42,1
2911,2.19,0.05,2.0,1
2912,1.85,0.38,2.63,1
2913,1.62,0.54,2.8,1
2914,1.33,0.63,2.21,1
2915,1.44,0.5,1.67,1
2916,1.24,0.43,1.19,1
2917,0.93,0.29,0.49,1
2918,0.35,0.11,-0.07,1
2919,0.14,-0.01,-0.38,1
2920,0.08,-0.2,-0.6,1
2921,-0.26,-0.37,-0.73,1
2922,-0.21,-0.4,-0.97,1
2923,-0.13,-0.29,-1.01,1
2924,0.09,-0.05,-0.9,1
2925,0.35,0.21,-0.7,1
2926,0.74,0.32,-0.23,1
2927,0.94,0.51,0.77,1
2928,1.39,0.49,1.71,1
2929,1.15,0.48,1.79,1
2930,1.31,0.38,1.81,1
2931,1.22,0.35,1.56,1
2932,1.0,0.26,1.42,1
2933,0.73,0.17,1.19,1
2934,0.73,0.08,0.91,1
2935,0.73,0.01,0.7,1
2936,0.79,-0.02,0.64,1
2937,0.74,0.0,0.66,1
2938,0.76,0.0,0.69,1
2939,0.73,-0.01,0.65,1
2940,0.77,-0.03,0.61,1
2941,0.77,-0.03,0.61,1
2942,0.77,-0.02,0.63,1
2943,0.76,-0.02,0.62,1
2944,0.74,0.0,0.65,1
2945,0.77,-0.03,0.66,1
2946,0.78,0.0,0.67,1
2947,0.78,-0.01,0.66,1
2948,0.77,-0.04,0.63,1
2949,0.72,0.0,0.61,1
2950,0.74,0.0,0.66,1
2951,0.73,-0.03,0.68,1
2952,0.74,-0.01,0.65,1
2953,0.81,-0.04,0.67,1
2954,0.74,-0.02,0.72,1
2955,0.79,-0.03,0.73,1
2956,0.74,-0.01,0.74,1
2957,0.73,0.0,0.63,1
2958,0.74,-0.02,0.53,1
2959,0.7,0.0,0.62,1
2960,0.74,-0.01,0.64,1
2961,0.74,0.01,0.73,1
2962,0.76,0.0,0.74,1
2963,0.75,-0.02,0.74,1
2964,0.81,-0.01,0.61,1
2965,0.79,-0.02,0.59,1
2966,0.77,-0.02,0.64,1
2967,0.74,-0.01,0.64,1
2968,0.76,-0.01,0.62,1
2969,0.77,-0.02,0.62,1
2970,0.77,-0.02,0.62,1
2971,0.78,-0.03,0.63,1
2972,0.77,-0.03,0.6,1
2973,0.78,-0.02,0.6,1
2974,0.77,-0.02,0.62,1
2975,0.76,-0.03,0.61,0
2976,0.79,-0.04,0.62,0
2977,0.79,-0.04,0.61,0
2978,0.78,-0.04,0.6,0
2979,0.77,-0.04,0.6,0
2980,0.78,-0.02,0.6,0
2981,0.79,-0.03,0.62,0
2982,0.79,-0.05,0.61,0
2983,0.78,-0.04,0.61,0
2984,0.79,-0.04,0.61,0
2985,0.78,-0.04,0.6,0
2986,0.79,-0.03,0.61,0
2987,0.8,-0.05,0.61,0
2988,0.8,-0.03,0.61,0
2989,0.78,-0.04,0.6,0
2990,0.79,-0.03,0.6,0
2991,0.78,-0.04,0.6,0
2992,0.79,-0.04,0.61,0
2993,0.79,-0.03,0.6,0
2994,0.79,-0.04,0.6,0
2995,0.79,-0.04,0.6,0
2996,0.79,-0.04,0.61,0
2997,0.8,-0.03,0.61,0
2998,0.78,-0.04,0.61,0
2999,0.8,-0.04,0.6,0
3000,0.78,-0.03,0.6,0
3001,0.78,-0.04,0.6,0
3002,0.79,-0.04,0.6,0
3003,0.79,-0.04,0.6,0
3004,0.78,-0.03,0.6,0
3005,0.78,-0.02,0.62,0
3006,0.78,-0.02,0.62,0
3007,0.78,-0.02,0.6,0
3008,0.77,-0.02,0.6,0
3009,0.78,-0.03,0.61,0
3010,0.78,-0.04,0.61,0
3011,0.79,-0.04,0.62,0
3012,0.78,-0.03,0.62,0
3013,0.78,-0.03,0.62,0
3014,0.76,-0.03,0.6,0
3015,0.78,-0.03,0.6,0
3016,0.77,-0.02,0.61,0
3017,0.78,-0.02,0.62,0
3018,0.77,-0.03,0.64,0
3019,0.77,-0.04,0.63,0
3020,0.78,-0.02,0.65,0
3021,0.78,-0.03,0.63,0
3022,0.77,-0.02,0.64,0
3023,0.77,-0.03,0.61,0
3024,0.78,-0.01,0.63,0
3025,0.76,-0.03,0.63,0
3026,0.77,-0.02,0.64,0
3027,0.78,-0.03,0.62,0
3028,0.77,-0.02,0.63,0
3029,0.77,-0.02,0.64,0
3030,0.77,-0.03,0.63,0
3031,0.77,-0.02,0.62,0
3032,0.77,-0.03,0.63,0
3033,0.76,-0.03,0.63,0
3034,0.77,-0.04,0.62,0
3035,0.78,-0.02,0.62,0
3036,0.78,-0.02,0.62,0
3037,0.76,-0.02,0.62,0
3038,0.78,-0.02,0.64,0
3039,0.77,-0.03,0.63,0
3040,0.76,-0.04,0.62,0
3041,0.79,-0.01,0.62,0
3042,0.77,-0.01,0.6,0
3043,0.78,0.02,0.6,0
3044,0.82,0.0,0.62,0
3045,0.77,-0.04,0.61,0
3046,0.79,-0.01,0.6,0
3047,0.78,-0.03,0.6,0
3048,0.78,-0.02,0.61,0
3049,0.78,-0.03,0.61,0
3050,0.79,-0.02,0.6,0
3051,0.78,-0.02,0.6,0
3052,0.78,-0.02,0.61,0
3053,0.78,-0.02,0.61,0
3054,0.78,-0.02,0.6,0
3055,0.77,-0.02,0.61,0
3056,0.78,-0.01,0.6,0
3057,0.78,-0.02,0.6,0
3058,0.78,-0.02,0.61,0
3059,0.79,-0.02,0.61,0
3060,0.78,-0.02,0.6,0
3061,0.79,-0.02,0.6,0
3062,0.78,-0.02,0.6,0
3063,0.79,-0.02,0.6,0
3064,0.77,-0.01,0.61,0
3065,0.78,-0.02,0.61,0
3066,0.78,-0.02,0.61,0
3067,0.77,-0.01,0.61,0
3068,0.77,-0.01,0.65,0
3069,0.78,-0.02,0.62,0
3070,0.78,-0.02,0.62,0
3071,0.77,-0.01,0.66,0
3072,0.76,-0.02,0.64,0
3073,0.76,-0.01,0.63,0
3074,0.75,-0.02,0.63,0
3075,0.73,-0.01,0.65,0
3076,0.75,-0.01,0.65,0
3077,0.75,-0.01,0.68,0
3078,0.75,-0.03,0.66,0
3079,0.76,-0.02,0.67,0
3080,0.74,-0.01,0.69,0
3081,0.76,-0.02,0.66,0
3082,0.74,-0.03,0.65,0
3083,0.69,0.0,0.65,0
3084,0.75,0.0,0.66,0
3085,0.76,-0.02,0.6,0
3086,0.79,-0.02,0.6,0
3087,0.8,-0.01,0.63,0
3088,0.77,-0.03,0.64,0
3089,0.77,-0.03,0.65,0
3090,0.81,0.0,0.62,0
3091,0.79,-0.04,0.61,0
3092,0.77,-0.02,0.61,0
3093,0.78,-0.02,0.61,0
3094,0.78,-0.02,0.62,0
3095,0.78,-0.03,0.61,0
3096,0.78,-0.02,0.6,0
3097,0.78,-0.02,0.6,0
3098,0.78,-0.02,0.61,0
3099,0.78,-0.03,0.61,0
