sequence,accelx,accely,accelz,event
0,0.17,-0.01,0.98,0
1,0.17,-0.01,0.98,0
2,0.17,-0.01,0.98,0
3,0.18,-0.01,0.98,0
4,0.17,-0.01,0.98,0
5,0.17,-0.01,0.98,0
6,0.17,-0.01,0.98,0
7,0.17,-0.01,0.98,0
8,0.17,-0.01,0.98,0
9,0.17,-0.01,0.98,0
10,0.17,-0.01,0.98,0
11,0.17,-0.01,0.98,0
12,0.17,-0.01,0.98,0
13,0.17,-0.01,0.98,0
14,0.17,-0.01,0.98,0
15,0.16,-0.01,0.98,0
16,0.17,-0.01,0.98,0
17,0.17,-0.01,0.98,0
18,0.17,-0.01,0.99,0
19,0.17,-0.01,0.98,0
20,0.17,-0.01,0.98,0
21,0.17,0.0,0.97,0
22,0.17,0.0,0.98,0
23,0.16,-0.01,0.98,0
24,0.16,-0.01,0.98,0
25,0.17,-0.01,0.99,0
26,0.18,0.0,0.98,0
27,0.17,0.0,0.98,0
28,0.18,-0.01,0.98,0
29,0.17,0.0,0.98,0
30,0.17,0.0,0.98,0
31,0.16,-0.01,0.98,0
32,0.17,0.0,0.98,0
33,0.16,0.0,0.98,0
34,0.14,-0.01,0.99,0
35,0.11,-0.01,0.99,0
36,0.11,-0.01,0.99,0
37,0.09,-0.01,0.98,0
38,0.09,-0.01,0.98,0
39,0.1,0.0,0.98,0
40,0.07,0.0,0.98,0
41,0.08,0.0,0.99,0
42,0.08,-0.02,1.0,0
43,0.04,0.0,0.98,0
44,0.08,-0.01,1.01,0
45,0.02,0.0,0.99,0
46,0.03,-0.01,0.98,0
47,0.06,0.0,0.99,0
48,0.04,0.0,1.01,0
49,0.05,0.0,1.02,0
50,0.02,-0.01,0.99,0
51,-0.01,0.01,1.0,0
52,0.08,-0.02,1.0,0
53,0.09,-0.02,0.97,0
54,0.1,0.01,0.98,0
55,0.11,0.0,0.98,0
56,0.12,0.01,0.98,0
57,0.12,0.01,0.98,0
58,0.13,0.0,0.98,0
59,0.11,0.0,0.98,0
60,0.14,0.0,0.98,0
61,0.13,0.0,0.99,0
62,0.11,0.0,0.99,0
63,0.14,0.0,0.98,0
64,0.12,0.0,0.99,0
65,0.14,0.0,0.98,0
66,0.13,0.0,0.99,0
67,0.12,0.0,0.98,0
68,0.14,0.0,0.99,0
69,0.14,0.0,0.99,0
70,0.12,0.0,0.98,0
71,0.13,0.0,0.98,0
72,0.13,0.0,0.98,0
73,0.14,0.0,0.99,0
74,0.13,0.0,0.99,0
75,0.14,0.0,0.98,1
76,0.13,0.0,0.98,1
77,0.14,0.0,0.98,1
78,0.14,0.0,0.98,1
79,0.14,0.0,0.98,1
80,0.12,0.0,0.98,1
81,0.14,0.0,0.99,1
82,0.12,0.0,0.99,1
83,0.13,0.0,0.98,1
84,0.14,0.0,0.99,1
85,0.13,0.0,0.98,1
86,0.14,0.0,0.98,1
87,0.13,0.0,0.98,1
88,0.14,0.0,0.99,1
89,0.14,0.0,0.98,1
90,0.14,0.0,0.98,1
91,0.14,0.0,0.99,1
92,0.15,0.0,1.0,1
93,0.14,0.0,1.0,1
94,0.14,0.0,0.99,1
95,0.14,0.01,1.0,1
96,0.13,-0.01,1.01,1
97,0.13,0.0,1.04,1
98,0.1,0.0,1.04,1
99,0.09,-0.01,1.06,1
100,0.0,-0.03,1.11,1
101,-0.16,-0.11,1.28,1
102,0.31,-0.23,1.53,1
103,0.21,-0.33,1.55,1
104,0.32,-0.28,1.48,1
105,0.35,-0.32,1.25,1
106,0.28,-0.32,1.05,1
107,0.45,-0.29,0.85,1
108,0.41,-0.23,0.62,1
109,0.2,-0.15,0.45,1
110,0.11,-0.11,0.46,1
111,-0.01,0.07,0.46,1
112,-0.14,0.28,0.35,1
113,-0.14,0.4,0.18,1
114,0.14,0.48,0.23,1
115,0.24,0.38,0.25,1
116,0.91,0.32,0.69,1
117,0.91,0.17,0.82,1
118,1.67,0.17,1.24,1
119,1.61,-0.07,1.18,1
120,1.66,-0.15,1.52,1
121,1.03,-0.11,1.86,1
122,1.06,0.01,2.12,1
123,0.91,0.18,1.87,1
124,1.06,0.27,1.6,1
125,1.01,0.25,1.23,1
126,0.84,0.12,0.88,1
127,0.65,-0.06,0.5,1
128,0.35,-0.22,0.26,1
129,0.01,-0.32,0.04,1
130,-0.06,-0.38,-0.13,1
131,-0.03,-0.39,-0.23,1
132,-0.11,-0.39,-0.38,1
133,0.14,-0.39,-0.42,1
134,0.31,-0.25,-0.39,1
135,0.61,-0.18,-0.21,1
136,0.71,-0.05,0.21,1
137,0.92,0.19,0.97,1
138,0.76,0.44,1.64,1
139,0.99,0.34,1.83,1
140,0.87,0.4,1.77,1
141,0.67,0.31,1.6,1
142,0.61,0.25,1.39,1
143,0.48,0.13,1.12,1
144,0.6,0.04,0.9,1
145,0.47,0.0,0.64,1
146,0.67,-0.03,0.73,1
147,0.67,-0.08,0.77,1
148,0.66,-0.08,0.82,1
149,0.57,-0.04,0.8,1
150,0.61,-0.02,0.8,1
151,0.6,-0.01,0.84,1
152,0.61,0.0,0.86,1
153,0.6,-0.01,0.8,1
154,0.61,-0.03,0.77,1
155,0.6,-0.01,0.75,1
156,0.61,-0.03,0.79,1
157,0.58,-0.03,0.8,1
158,0.58,-0.01,0.79,1
159,0.59,-0.01,0.85,1
160,0.58,-0.02,0.83,1
161,0.56,-0.01,0.8,1
162,0.56,-0.02,0.81,1
163,0.51,0.0,0.83,1
164,0.51,-0.01,0.86,1
165,0.56,-0.01,0.87,1
166,0.6,-0.05,0.88,1
167,0.61,-0.01,0.85,1
168,0.55,0.0,0.81,1
169,0.58,0.01,0.8,1
170,0.52,-0.01,0.77,1
171,0.51,-0.03,0.8,1
172,0.53,-0.04,0.82,1
173,0.49,-0.01,0.9,1
174,0.54,-0.01,0.93,1
175,0.56,0.0,0.88,0
176,0.53,0.02,0.81,0
177,0.55,0.0,0.78,0
178,0.59,0.0,0.79,0
179,0.58,0.0,0.82,0
180,0.57,-0.01,0.82,0
181,0.58,-0.01,0.81,0
182,0.58,-0.01,0.82,0
183,0.59,-0.01,0.83,0
184,0.58,-0.02,0.83,0
185,0.59,-0.02,0.83,0
186,0.58,-0.02,0.83,0
187,0.59,-0.02,0.82,0
188,0.59,-0.02,0.81,0
189,0.58,-0.01,0.81,0
190,0.59,-0.01,0.8,0
191,0.58,-0.01,0.81,0
192,0.58,-0.02,0.81,0
193,0.58,-0.02,0.81,0
194,0.58,-0.01,0.8,0
195,0.58,-0.01,0.82,0
196,0.58,-0.02,0.82,0
197,0.58,-0.01,0.81,0
198,0.58,-0.02,0.81,0
199,0.58,-0.01,0.8,0
200,0.59,-0.01,0.82,0
201,0.58,-0.01,0.81,0
202,0.58,-0.01,0.81,0
203,0.58,-0.02,0.81,0
204,0.58,-0.01,0.81,0
205,0.58,-0.01,0.81,0
206,0.58,-0.01,0.82,0
207,0.58,-0.01,0.81,0
208,0.58,-0.01,0.82,0
209,0.58,-0.02,0.82,0
210,0.59,-0.01,0.82,0
211,0.58,-0.01,0.81,0
212,0.58,-0.01,0.81,0
213,0.58,-0.01,0.82,0
214,0.58,-0.01,0.81,0
215,0.58,-0.01,0.81,0
216,0.58,-0.01,0.82,0
217,0.58,-0.01,0.84,0
218,0.58,-0.01,0.82,0
219,0.58,-0.01,0.8,0
220,0.59,-0.01,0.82,0
221,0.58,-0.01,0.81,0
222,0.58,-0.01,0.81,0
223,0.59,-0.01,0.82,0
224,0.58,-0.01,0.83,0
225,0.59,-0.01,0.82,0
226,0.58,-0.01,0.81,0
227,0.58,-0.01,0.81,0
228,0.58,-0.01,0.81,0
229,0.58,-0.01,0.81,0
230,0.58,-0.02,0.81,0
231,0.58,-0.01,0.81,0
232,0.59,-0.01,0.81,0
233,0.59,-0.01,0.82,0
234,0.58,-0.01,0.82,0
235,0.59,-0.01,0.82,0
236,0.59,-0.01,0.81,0
237,0.59,-0.01,0.81,0
238,0.58,-0.01,0.8,0
239,0.58,-0.01,0.8,0
240,0.59,-0.01,0.81,0
241,0.59,-0.01,0.81,0
242,0.58,-0.01,0.81,0
243,0.59,-0.01,0.81,0
244,0.58,-0.01,0.82,0
245,0.58,-0.01,0.81,0
246,0.59,-0.01,0.8,0
247,0.59,-0.01,0.8,0
248,0.58,-0.01,0.81,0
249,0.59,-0.02,0.81,0
250,0.59,-0.01,0.81,0
251,0.58,-0.02,0.81,0
252,0.58,-0.01,0.8,0
253,0.59,-0.01,0.81,0
254,0.58,-0.01,0.82,0
255,0.58,-0.02,0.8,0
256,0.58,-0.01,0.81,0
257,0.59,-0.02,0.82,0
258,0.58,-0.01,0.81,0
259,0.58,-0.01,0.8,0
260,0.59,-0.01,0.81,0
261,0.59,-0.01,0.81,0
262,0.58,-0.01,0.81,0
263,0.58,-0.01,0.81,0
264,0.59,-0.01,0.81,0
265,0.58,-0.01,0.81,0
266,0.58,-0.01,0.8,0
267,0.59,-0.01,0.81,0
268,0.58,-0.02,0.81,0
269,0.58,-0.01,0.81,0
270,0.59,-0.02,0.81,0
271,0.58,-0.01,0.81,0
272,0.58,-0.01,0.81,0
273,0.58,-0.02,0.8,0
274,0.58,-0.01,0.81,0
275,0.59,-0.01,0.82,0
276,0.59,-0.01,0.82,0
277,0.58,-0.01,0.81,0
278,0.58,-0.01,0.81,0
279,0.58,-0.01,0.81,0
280,0.59,-0.01,0.82,0
281,0.58,-0.02,0.82,0
282,0.58,-0.02,0.81,0
283,0.58,-0.02,0.81,0
284,0.58,-0.02,0.81,0
285,0.59,-0.02,0.81,0
286,0.58,-0.02,0.82,0
287,0.58,-0.02,0.81,0
288,0.59,-0.02,0.82,0
289,0.58,-0.02,0.81,0
290,0.58,-0.02,0.81,0
291,0.58,-0.02,0.82,0
292,0.58,-0.02,0.81,0
293,0.58,-0.02,0.81,0
294,0.58,-0.02,0.81,0
295,0.58,-0.02,0.82,0
296,0.57,-0.02,0.82,0
297,0.58,-0.02,0.82,0
298,0.58,-0.02,0.82,0
299,0.57,-0.02,0.81,0
300,0.58,-0.02,0.82,0
301,0.58,-0.02,0.82,0
302,0.59,-0.02,0.82,0
303,0.58,-0.02,0.83,0
304,0.57,-0.02,0.83,0
305,0.58,-0.02,0.82,0
306,0.58,-0.01,0.82,0
307,0.58,-0.01,0.83,0
308,0.57,-0.01,0.84,0
309,0.56,-0.02,0.82,0
310,0.56,-0.02,0.85,0
311,0.56,-0.02,0.83,0
312,0.56,-0.02,0.84,0
313,0.58,-0.01,0.81,0
314,0.53,0.0,0.84,0
315,0.58,-0.06,0.85,0
316,0.52,0.0,0.85,0
317,0.54,0.0,0.86,0
318,0.53,0.0,0.85,0
319,0.56,-0.01,0.83,0
320,0.59,-0.01,0.8,0
321,0.58,-0.01,0.81,0
322,0.59,-0.02,0.8,0
323,0.59,-0.01,0.8,0
324,0.59,-0.01,0.81,0
325,0.59,-0.01,0.8,0
326,0.58,-0.01,0.8,0
327,0.59,-0.02,0.8,0
328,0.59,-0.02,0.8,0
329,0.59,-0.01,0.8,0
330,0.59,-0.01,0.8,0
331,0.59,-0.02,0.8,0
332,0.59,-0.02,0.8,0
333,0.59,-0.02,0.8,0
334,0.59,-0.01,0.8,0
335,0.59,-0.02,0.8,0
336,0.59,-0.01,0.81,0
337,0.59,-0.02,0.8,0
338,0.59,-0.01,0.81,0
339,0.59,-0.02,0.8,0
340,0.59,-0.02,0.8,0
341,0.59,-0.02,0.8,0
342,0.59,-0.02,0.8,0
343,0.59,-0.01,0.8,0
344,0.59,-0.02,0.79,0
345,0.59,-0.01,0.8,0
346,0.59,-0.02,0.81,0
347,0.59,-0.02,0.8,0
348,0.59,-0.02,0.8,0
349,0.59,-0.02,0.81,0
350,0.59,-0.02,0.8,1
351,0.59,-0.02,0.8,1
352,0.59,-0.02,0.8,1
353,0.59,-0.01,0.79,1
354,0.59,-0.02,0.8,1
355,0.59,-0.02,0.8,1
356,0.59,-0.01,0.8,1
357,0.59,-0.02,0.81,1
358,0.59,-0.02,0.8,1
359,0.59,-0.01,0.8,1
360,0.59,-0.01,0.8,1
361,0.59,-0.01,0.8,1
362,0.59,-0.02,0.8,1
363,0.59,-0.02,0.8,1
364,0.59,-0.01,0.8,1
365,0.59,-0.01,0.8,1
366,0.59,-0.01,0.8,1
367,0.59,-0.02,0.8,1
368,0.59,-0.01,0.82,1
369,0.58,-0.02,0.85,1
370,0.67,-0.02,0.89,1
371,0.6,-0.06,0.94,1
372,0.64,-0.02,1.14,1
373,0.64,-0.23,1.44,1
374,0.69,-0.32,1.66,1
375,1.39,-0.49,1.6,1
376,1.3,-0.52,1.31,1
377,1.1,-0.35,0.86,1
378,0.78,-0.19,0.43,1
379,0.28,0.03,0.15,1
380,-0.11,0.17,0.09,1
381,-0.39,0.34,0.01,1
382,-0.28,0.48,0.04,1
383,-0.41,0.49,0.12,1
384,-0.14,0.53,0.23,1
385,0.35,0.69,0.32,1
386,0.94,0.59,0.57,1
387,1.35,0.61,0.93,1
388,1.74,0.33,1.23,1
389,2.28,-0.23,1.68,1
390,2.12,-0.42,2.45,1
391,1.63,-0.23,2.6,1
392,1.42,-0.02,2.11,1
393,1.32,0.19,1.58,1
394,1.09,0.21,0.97,1
395,0.79,0.11,0.27,1
396,0.28,-0.02,-0.11,1
397,0.21,-0.12,-0.38,1
398,0.08,-0.21,-0.55,1
399,-0.1,-0.21,-0.73,1
400,-0.01,-0.16,-0.8,1
401,-0.03,-0.04,-0.73,1
402,0.44,0.15,-0.56,1
403,0.89,0.24,0.22,1
404,1.14,0.32,1.02,1
405,1.39,0.39,1.77,1
406,1.47,0.34,1.82,1
407,1.19,0.38,1.73,1
408,0.98,0.32,1.48,1
409,0.76,0.24,1.29,1
410,0.67,0.12,0.99,1
411,0.76,0.04,0.7,1
412,0.82,-0.02,0.51,1
413,0.72,-0.03,0.46,1
414,0.83,-0.04,0.61,1
415,0.85,-0.05,0.69,1
416,0.78,-0.04,0.64,1
417,0.79,-0.02,0.59,1
418,0.8,-0.04,0.59,1
419,0.84,-0.04,0.6,1
420,0.83,-0.04,0.6,1
421,0.78,-0.05,0.6,1
422,0.77,-0.02,0.6,1
423,0.82,-0.04,0.59,1
424,0.78,-0.02,0.61,1
425,0.82,-0.03,0.61,1
426,0.75,-0.04,0.59,1
427,0.84,-0.03,0.63,1
428,0.7,-0.03,0.6,1
429,0.8,0.0,0.63,1
430,0.76,-0.05,0.63,1
431,0.75,-0.07,0.68,1
432,0.78,0.01,0.7,1
433,0.75,-0.01,0.63,1
434,0.8,-0.1,0.53,1
435,0.75,0.04,0.58,1
436,0.81,-0.08,0.63,1
437,0.74,0.01,0.59,1
438,0.74,-0.01,0.73,1
439,0.77,0.02,0.74,1
440,0.77,-0.15,0.6,1
441,0.78,0.0,0.54,1
442,0.75,-0.01,0.59,1
443,0.76,-0.03,0.6,1
444,0.78,-0.01,0.6,1
445,0.79,-0.02,0.6,1
446,0.78,-0.03,0.62,1
447,0.79,-0.04,0.61,1
448,0.8,-0.03,0.62,1
449,0.78,-0.03,0.62,1
450,0.78,-0.03,0.6,0
451,0.78,-0.02,0.61,0
452,0.77,-0.03,0.6,0
453,0.78,-0.03,0.61,0
454,0.78,-0.03,0.61,0
455,0.78,-0.03,0.6,0
456,0.78,-0.03,0.61,0
457,0.77,-0.03,0.6,0
458,0.78,-0.03,0.61,0
459,0.78,-0.04,0.61,0
460,0.77,-0.04,0.61,0
461,0.78,-0.04,0.61,0
462,0.78,-0.03,0.62,0
463,0.77,-0.04,0.61,0
464,0.78,-0.03,0.61,0
465,0.77,-0.03,0.61,0
466,0.78,-0.02,0.62,0
467,0.78,-0.03,0.62,0
468,0.77,-0.03,0.61,0
469,0.77,-0.03,0.61,0
470,0.77,-0.03,0.61,0
471,0.78,-0.03,0.61,0
472,0.78,-0.03,0.61,0
473,0.77,-0.04,0.61,0
474,0.77,-0.03,0.61,0
475,0.77,-0.04,0.6,0
476,0.77,-0.04,0.62,0
477,0.78,-0.03,0.62,0
478,0.78,-0.04,0.62,0
479,0.77,-0.04,0.63,0
480,0.77,-0.04,0.61,0
481,0.77,-0.03,0.61,0
482,0.77,-0.03,0.61,0
483,0.77,-0.03,0.61,0
484,0.77,-0.03,0.61,0
485,0.78,-0.04,0.62,0
486,0.77,-0.03,0.61,0
487,0.77,-0.04,0.61,0
488,0.78,-0.03,0.62,0
489,0.79,-0.03,0.61,0
490,0.75,0.0,0.6,0
491,0.84,-0.05,0.62,0
492,0.77,-0.04,0.61,0
493,0.78,-0.04,0.61,0
494,0.79,-0.03,0.61,0
495,0.78,-0.03,0.61,0
496,0.77,-0.04,0.6,0
497,0.78,-0.03,0.6,0
498,0.78,-0.03,0.61,0
499,0.77,-0.03,0.6,0
500,0.78,-0.03,0.61,0
501,0.78,-0.03,0.61,0
502,0.78,-0.03,0.61,0
503,0.78,-0.03,0.61,0
504,0.78,-0.02,0.61,0
505,0.78,-0.03,0.61,0
506,0.78,-0.03,0.6,0
507,0.78,-0.03,0.61,0
508,0.78,-0.02,0.6,0
509,0.78,-0.03,0.61,0
510,0.78,-0.03,0.6,0
511,0.78,-0.03,0.6,0
512,0.78,-0.03,0.61,0
513,0.78,-0.03,0.61,0
514,0.78,-0.03,0.61,0
515,0.78,-0.03,0.61,0
516,0.78,-0.03,0.6,0
517,0.78,-0.03,0.6,0
518,0.78,-0.03,0.6,0
519,0.78,-0.03,0.6,0
520,0.78,-0.03,0.6,0
521,0.78,-0.03,0.61,0
522,0.78,-0.03,0.61,0
523,0.78,-0.03,0.6,0
524,0.78,-0.03,0.61,0
525,0.78,-0.03,0.6,0
526,0.78,-0.03,0.6,0
527,0.78,-0.03,0.6,0
528,0.78,-0.02,0.61,0
529,0.78,-0.03,0.6,0
530,0.78,-0.04,0.61,0
531,0.78,-0.04,0.61,0
532,0.78,-0.03,0.6,0
533,0.79,-0.02,0.61,0
534,0.78,-0.03,0.6,0
535,0.78,-0.03,0.61,0
536,0.78,-0.03,0.61,0
537,0.79,-0.03,0.61,0
538,0.78,-0.03,0.61,0
539,0.78,-0.04,0.61,0
540,0.78,-0.03,0.6,0
541,0.78,-0.03,0.61,0
542,0.78,-0.04,0.6,0
543,0.78,-0.03,0.61,0
544,0.78,-0.03,0.61,0
545,0.78,-0.03,0.61,0
546,0.77,-0.03,0.61,0
547,0.78,-0.03,0.61,0
548,0.78,-0.03,0.61,0
549,0.78,-0.03,0.61,0
550,0.78,-0.04,0.6,0
551,0.78,-0.03,0.61,0
552,0.78,-0.02,0.61,0
553,0.78,-0.03,0.6,0
554,0.78,-0.03,0.61,0
555,0.78,-0.03,0.61,0
556,0.78,-0.03,0.61,0
557,0.78,-0.03,0.61,0
558,0.78,-0.03,0.6,0
559,0.79,-0.03,0.61,0
560,0.78,-0.03,0.6,0
561,0.78,-0.03,0.6,0
562,0.78,-0.03,0.61,0
563,0.78,-0.03,0.61,0
564,0.78,-0.03,0.61,0
565,0.78,-0.03,0.61,0
566,0.78,-0.03,0.6,0
567,0.78,-0.03,0.6,0
568,0.78,-0.04,0.61,0
569,0.77,-0.04,0.61,0
570,0.78,-0.03,0.61,0
571,0.79,-0.03,0.61,0
572,0.77,-0.03,0.61,0
573,0.77,-0.04,0.61,0
574,0.78,-0.03,0.6,0
575,0.78,-0.04,0.61,0
576,0.78,-0.04,0.61,0
577,0.78,-0.03,0.61,0
578,0.78,-0.04,0.61,0
579,0.78,-0.03,0.61,0
580,0.78,-0.04,0.6,0
581,0.78,-0.04,0.61,0
582,0.77,-0.03,0.61,0
583,0.77,-0.04,0.61,0
584,0.78,-0.02,0.61,0
585,0.77,-0.04,0.63,0
586,0.78,-0.05,0.61,0
587,0.76,-0.01,0.62,0
588,0.76,-0.04,0.64,0
589,0.77,-0.03,0.62,0
590,0.77,-0.03,0.61,0
591,0.76,-0.03,0.62,0
592,0.77,-0.03,0.62,0
593,0.76,-0.02,0.62,0
594,0.77,-0.03,0.63,0
595,0.77,-0.03,0.62,0
596,0.77,-0.03,0.62,0
597,0.76,-0.03,0.63,0
598,0.75,-0.03,0.64,0
599,0.76,-0.02,0.61,0
600,0.75,-0.01,0.66,0
601,0.77,-0.04,0.65,0
602,0.76,-0.04,0.63,0
603,0.78,0.0,0.65,0
604,0.77,-0.02,0.65,0
605,0.76,-0.02,0.58,0
606,0.77,-0.02,0.6,0
607,0.78,-0.02,0.62,0
608,0.78,-0.02,0.61,0
609,0.78,-0.03,0.6,0
610,0.78,-0.03,0.62,0
611,0.78,-0.02,0.61,0
612,0.78,-0.02,0.61,0
613,0.78,-0.02,0.61,0
614,0.78,-0.02,0.61,0
615,0.78,-0.02,0.61,0
616,0.78,-0.03,0.6,0
617,0.78,-0.03,0.6,0
618,0.77,-0.03,0.61,0
619,0.78,-0.03,0.61,0
620,0.78,-0.02,0.61,0
621,0.78,-0.02,0.62,0
622,0.77,-0.02,0.61,0
623,0.78,-0.02,0.61,0
624,0.77,-0.02,0.61,0
625,0.77,-0.02,0.61,1
626,0.78,-0.02,0.62,1
627,0.78,-0.03,0.61,1
628,0.77,-0.03,0.61,1
629,0.78,-0.02,0.61,1
630,0.77,-0.02,0.6,1
631,0.77,-0.03,0.61,1
632,0.78,-0.02,0.61,1
633,0.78,-0.02,0.62,1
634,0.78,-0.02,0.62,1
635,0.78,-0.02,0.61,1
636,0.77,-0.02,0.61,1
637,0.77,-0.02,0.61,1
638,0.77,-0.02,0.61,1
639,0.78,-0.02,0.61,1
640,0.78,-0.02,0.61,1
641,0.78,-0.03,0.61,1
642,0.78,-0.02,0.61,1
643,0.79,-0.02,0.61,1
644,0.78,-0.02,0.61,1
645,0.79,-0.02,0.61,1
646,0.78,-0.01,0.61,1
647,0.83,-0.04,0.64,1
648,0.79,-0.01,0.67,1
649,0.78,-0.03,0.74,1
650,0.81,-0.04,0.87,1
651,0.89,-0.12,1.24,1
652,1.03,-0.32,1.47,1
653,1.37,-0.39,1.53,1
654,1.45,-0.41,1.26,1
655,1.39,-0.39,0.87,1
656,1.05,-0.26,0.48,1
657,0.54,-0.17,0.18,1
658,0.15,0.03,-0.01,1
659,-0.17,0.19,-0.06,1
660,-0.51,0.39,-0.11,1
661,-0.52,0.43,-0.11,1
662,-0.49,0.65,0.01,1
663,0.0,0.86,0.1,1
664,0.69,0.85,0.41,1
665,1.04,0.75,0.85,1
666,1.82,0.4,1.28,1
667,1.86,0.12,1.51,1
668,1.99,-0.06,1.85,1
669,1.33,0.05,2.17,1
670,1.25,0.23,2.22,1
671,1.23,0.46,1.94,1
672,1.5,0.52,1.69,1
673,1.32,0.41,1.16,1
674,1.01,0.27,0.5,1
675,0.39,0.0,0.0,1
676,0.11,-0.16,-0.29,1
677,0.04,-0.29,-0.54,1
678,-0.14,-0.4,-0.77,1
679,0.09,-0.28,-0.97,1
680,0.17,-0.19,-0.98,1
681,0.39,0.07,-0.8,1
682,0.7,0.26,-0.47,1
683,0.92,0.43,0.63,1
684,1.34,0.48,1.61,1
685,1.24,0.49,1.83,1
686,1.42,0.39,1.78,1
687,1.12,0.48,1.63,1
688,0.92,0.37,1.49,1
689,0.75,0.2,1.16,1
690,0.7,0.08,0.79,1
691,0.79,0.01,0.58,1
692,0.74,-0.03,0.5,1
693,0.77,-0.04,0.56,1
694,0.75,-0.03,0.63,1
695,0.83,-0.03,0.67,1
696,0.83,-0.05,0.62,1
697,0.8,-0.04,0.59,1
698,0.83,-0.02,0.58,1
699,0.81,-0.04,0.6,1
700,0.8,-0.04,0.58,1
701,0.83,-0.04,0.59,1
702,0.84,-0.01,0.59,1
703,0.79,-0.02,0.59,1
704,0.85,-0.08,0.54,1
705,0.74,0.01,0.62,1
706,0.86,-0.06,0.58,1
707,0.76,-0.02,0.6,1
708,0.82,-0.05,0.59,1
709,0.83,-0.04,0.66,1
710,0.82,0.0,0.71,1
711,0.77,0.0,0.63,1
712,0.78,-0.03,0.49,1
713,0.75,0.0,0.53,1
714,0.78,-0.02,0.58,1
715,0.77,0.0,0.64,1
716,0.83,-0.07,0.65,1
717,0.81,-0.05,0.66,1
718,0.86,0.03,0.65,1
719,0.77,-0.04,0.59,1
720,0.79,-0.02,0.54,1
721,0.78,-0.01,0.55,1
722,0.79,-0.01,0.59,1
723,0.79,-0.02,0.6,1
724,0.79,-0.03,0.6,1
725,0.79,-0.02,0.61,0
726,0.83,-0.02,0.62,0
727,0.77,-0.04,0.61,0
728,0.78,-0.03,0.59,0
729,0.79,-0.02,0.6,0
730,0.77,-0.03,0.6,0
731,0.78,-0.02,0.61,0
732,0.78,-0.03,0.6,0
733,0.79,-0.02,0.61,0
734,0.78,-0.02,0.6,0
735,0.78,-0.03,0.6,0
736,0.78,-0.02,0.61,0
737,0.77,-0.02,0.61,0
738,0.78,-0.03,0.61,0
739,0.78,-0.02,0.6,0
740,0.78,-0.03,0.6,0
741,0.77,-0.03,0.61,0
742,0.78,-0.03,0.61,0
743,0.79,-0.03,0.61,0
744,0.78,-0.03,0.61,0
745,0.79,-0.03,0.6,0
746,0.78,-0.02,0.6,0
747,0.78,-0.03,0.6,0
748,0.79,-0.03,0.6,0
749,0.78,-0.03,0.6,0
750,0.79,-0.03,0.61,0
751,0.78,-0.03,0.6,0
752,0.78,-0.03,0.6,0
753,0.79,-0.04,0.61,0
754,0.79,-0.03,0.6,0
755,0.79,-0.03,0.59,0
756,0.78,-0.03,0.6,0
757,0.79,-0.03,0.6,0
758,0.79,-0.03,0.6,0
759,0.79,-0.04,0.6,0
760,0.79,-0.03,0.6,0
761,0.8,-0.03,0.6,0
762,0.79,-0.03,0.59,0
763,0.79,-0.03,0.59,0
764,0.78,-0.04,0.6,0
765,0.8,-0.03,0.6,0
766,0.81,-0.03,0.6,0
767,0.8,-0.04,0.6,0
768,0.78,-0.04,0.59,0
769,0.81,-0.03,0.59,0
770,0.79,-0.04,0.59,0
771,0.79,-0.04,0.6,0
772,0.79,-0.04,0.59,0
773,0.81,-0.04,0.59,0
774,0.8,-0.04,0.6,0
775,0.79,-0.04,0.6,0
776,0.8,-0.03,0.59,0
777,0.8,-0.04,0.59,0
778,0.79,-0.04,0.59,0
779,0.8,-0.04,0.59,0
780,0.79,-0.04,0.6,0
781,0.8,-0.04,0.6,0
782,0.81,-0.04,0.6,0
783,0.79,-0.04,0.59,0
784,0.79,-0.04,0.59,0
785,0.8,-0.04,0.59,0
786,0.8,-0.04,0.59,0
787,0.79,-0.04,0.59,0
788,0.79,-0.04,0.6,0
789,0.81,-0.04,0.59,0
790,0.79,-0.03,0.59,0
791,0.79,-0.04,0.6,0
792,0.8,-0.04,0.59,0
793,0.8,-0.03,0.6,0
794,0.79,-0.04,0.59,0
795,0.8,-0.03,0.59,0
796,0.79,-0.04,0.59,0
797,0.79,-0.04,0.6,0
798,0.8,-0.04,0.59,0
799,0.81,-0.04,0.59,0
800,0.79,-0.04,0.6,0
801,0.8,-0.04,0.59,0
802,0.8,-0.04,0.59,0
803,0.79,-0.04,0.59,0
804,0.8,-0.04,0.59,0
805,0.8,-0.05,0.6,0
806,0.8,-0.04,0.59,0
807,0.8,-0.04,0.59,0
808,0.8,-0.04,0.59,0
809,0.79,-0.04,0.59,0
810,0.79,-0.04,0.59,0
811,0.81,-0.04,0.59,0
812,0.8,-0.04,0.59,0
813,0.79,-0.04,0.59,0
814,0.8,-0.04,0.59,0
815,0.8,-0.04,0.59,0
816,0.8,-0.04,0.59,0
817,0.81,-0.04,0.59,0
818,0.79,-0.04,0.59,0
819,0.8,-0.04,0.59,0
820,0.8,-0.04,0.59,0
821,0.8,-0.04,0.59,0
822,0.81,-0.04,0.59,0
823,0.79,-0.04,0.59,0
824,0.81,-0.04,0.59,0
825,0.81,-0.04,0.59,0
826,0.81,-0.05,0.59,0
827,0.81,-0.04,0.59,0
828,0.82,-0.04,0.59,0
829,0.8,-0.04,0.59,0
830,0.8,-0.04,0.59,0
831,0.81,-0.04,0.59,0
832,0.81,-0.04,0.59,0
833,0.81,-0.04,0.59,0
834,0.81,-0.04,0.59,0
835,0.8,-0.04,0.59,0
836,0.8,-0.04,0.59,0
837,0.81,-0.04,0.59,0
838,0.8,-0.04,0.59,0
839,0.81,-0.04,0.59,0
840,0.78,-0.04,0.59,0
841,0.8,-0.04,0.59,0
842,0.81,-0.04,0.59,0
843,0.8,-0.05,0.59,0
844,0.8,-0.04,0.59,0
845,0.81,-0.04,0.58,0
846,0.8,-0.04,0.59,0
847,0.8,-0.04,0.59,0
848,0.82,-0.04,0.59,0
849,0.81,-0.04,0.59,0
850,0.81,-0.04,0.59,0
851,0.81,-0.04,0.59,0
852,0.8,-0.04,0.59,0
853,0.8,-0.04,0.59,0
854,0.81,-0.04,0.59,0
855,0.8,-0.04,0.59,0
856,0.8,-0.04,0.59,0
857,0.79,-0.04,0.59,0
858,0.81,-0.04,0.59,0
859,0.81,-0.04,0.6,0
860,0.8,-0.04,0.59,0
861,0.8,-0.04,0.59,0
862,0.81,-0.04,0.59,0
863,0.79,-0.04,0.59,0
864,0.8,-0.04,0.59,0
865,0.8,-0.04,0.59,0
866,0.8,-0.05,0.59,0
867,0.81,-0.04,0.59,0
868,0.79,-0.04,0.59,0
869,0.8,-0.04,0.59,0
870,0.79,-0.04,0.59,0
871,0.8,-0.04,0.59,0
872,0.8,-0.04,0.59,0
873,0.8,-0.04,0.59,0
874,0.8,-0.04,0.59,0
875,0.81,-0.04,0.6,0
876,0.8,-0.04,0.59,0
877,0.81,-0.04,0.59,0
878,0.8,-0.04,0.59,0
879,0.81,-0.04,0.59,0
880,0.8,-0.04,0.59,0
881,0.8,-0.04,0.59,0
882,0.81,-0.04,0.59,0
883,0.81,-0.04,0.59,0
884,0.82,-0.04,0.59,0
885,0.8,-0.04,0.59,0
886,0.8,-0.04,0.59,0
887,0.8,-0.04,0.59,0
888,0.8,-0.04,0.59,0
889,0.8,-0.05,0.59,0
890,0.81,-0.04,0.59,0
891,0.81,-0.04,0.59,0
892,0.81,-0.05,0.59,0
893,0.8,-0.04,0.58,0
894,0.81,-0.04,0.58,0
895,0.8,-0.04,0.59,0
896,0.8,-0.04,0.59,0
897,0.81,-0.04,0.59,0
898,0.81,-0.04,0.59,0
899,0.81,-0.04,0.58,0
900,0.82,-0.04,0.59,0
901,0.8,-0.04,0.59,0
902,0.81,-0.04,0.58,0
903,0.81,-0.03,0.58,0
904,0.8,-0.04,0.58,0
905,0.8,-0.04,0.58,0
906,0.82,-0.04,0.59,0
907,0.81,-0.04,0.59,0
908,0.82,-0.05,0.59,0
909,0.8,-0.04,0.59,0
910,0.82,-0.04,0.59,0
911,0.8,-0.04,0.57,0
912,0.79,-0.04,0.58,0
913,0.8,-0.04,0.59,0
914,0.81,-0.04,0.59,0
915,0.8,-0.05,0.59,0
916,0.8,-0.04,0.59,0
917,0.81,-0.04,0.59,0
918,0.79,-0.04,0.58,0
919,0.8,-0.04,0.59,0
920,0.81,-0.04,0.59,0
921,0.8,-0.04,0.59,0
922,0.8,-0.04,0.59,0
923,0.82,-0.04,0.59,0
924,0.8,-0.05,0.59,0
925,0.79,-0.05,0.58,0
926,0.81,-0.04,0.59,0
927,0.8,-0.04,0.59,0
928,0.8,-0.04,0.59,0
929,0.81,-0.05,0.59,0
930,0.8,-0.05,0.59,0
931,0.8,-0.04,0.59,0
932,0.81,-0.04,0.59,0
933,0.81,-0.04,0.59,0
934,0.8,-0.04,0.59,0
935,0.8,-0.04,0.59,0
936,0.8,-0.05,0.59,0
937,0.8,-0.05,0.58,0
938,0.81,-0.04,0.59,0
939,0.81,-0.05,0.6,0
940,0.8,-0.05,0.59,0
941,0.81,-0.04,0.59,0
942,0.8,-0.04,0.59,0
943,0.79,-0.04,0.59,0
944,0.8,-0.04,0.59,0
945,0.81,-0.04,0.59,0
946,0.79,-0.05,0.59,0
947,0.8,-0.06,0.59,0
948,0.8,-0.04,0.6,0
949,0.84,-0.09,0.57,0
950,0.77,-0.03,0.6,0
951,0.78,-0.03,0.6,0
952,0.79,-0.03,0.6,0
953,0.79,-0.05,0.59,0
954,0.78,-0.04,0.6,0
955,0.82,-0.04,0.61,0
956,0.8,-0.05,0.6,0
957,0.78,-0.03,0.6,0
958,0.8,-0.04,0.59,0
959,0.79,-0.02,0.59,0
960,0.78,-0.06,0.59,0
961,0.77,-0.02,0.6,0
962,0.82,-0.08,0.6,0
963,0.79,-0.03,0.62,0
964,0.77,-0.01,0.67,0
965,0.79,-0.02,0.65,0
966,0.79,-0.09,0.6,0
967,0.82,-0.01,0.54,0
968,0.78,-0.05,0.57,0
969,0.79,-0.04,0.6,0
970,0.82,-0.02,0.59,0
971,0.8,-0.02,0.58,0
972,0.81,-0.03,0.58,0
973,0.79,-0.04,0.59,0
974,0.82,-0.03,0.59,0
975,0.81,-0.03,0.59,1
976,0.8,-0.04,0.59,1
977,0.8,-0.03,0.59,1
978,0.8,-0.04,0.59,1
979,0.8,-0.03,0.59,1
980,0.8,-0.03,0.6,1
981,0.8,-0.03,0.6,1
982,0.8,-0.03,0.59,1
983,0.8,-0.03,0.59,1
984,0.8,-0.02,0.59,1
985,0.79,-0.02,0.59,1
986,0.79,-0.03,0.59,1
987,0.79,-0.03,0.59,1
988,0.8,-0.02,0.59,1
989,0.8,-0.03,0.59,1
990,0.79,-0.03,0.59,1
991,0.8,-0.02,0.59,1
992,0.8,-0.03,0.59,1
993,0.8,-0.03,0.6,1
994,0.84,-0.02,0.6,1
995,0.83,0.01,0.65,1
996,0.87,-0.04,0.73,1
997,0.76,-0.04,0.91,1
998,0.94,-0.08,1.19,1
999,1.04,-0.24,1.42,1
1000,1.2,-0.35,1.35,1
1001,1.36,-0.39,1.05,1
1002,1.24,-0.42,0.8,1
1003,0.98,-0.38,0.53,1
1004,0.55,-0.24,0.27,1
1005,0.15,0.01,0.05,1
1006,-0.26,0.3,-0.16,1
1007,-0.52,0.53,-0.26,1
1008,-0.61,0.7,-0.19,1
1009,-0.18,0.88,-0.04,1
1010,0.5,0.93,0.17,1
1011,1.21,0.85,0.5,1
1012,1.92,0.51,1.34,1
1013,1.81,0.22,1.62,1
1014,2.24,-0.21,1.9,1
1015,1.51,0.12,2.27,1
1016,1.19,0.27,2.32,1
1017,1.17,0.43,1.85,1
1018,1.38,0.41,1.39,1
1019,1.39,0.34,0.86,1
1020,0.97,0.21,0.48,1
1021,0.39,0.01,0.17,1
1022,0.35,-0.11,-0.16,1
1023,0.0,-0.37,-0.4,1
1024,-0.18,-0.38,-0.5,1
1025,-0.17,-0.31,-0.7,1
1026,-0.14,-0.25,-0.81,1
1027,0.2,-0.05,-0.79,1
1028,0.59,0.15,-0.6,1
1029,1.17,0.41,0.36,1
1030,1.27,0.28,1.42,1
1031,1.45,0.28,1.76,1
1032,1.36,0.27,1.67,1
1033,1.22,0.23,1.47,1
1034,1.02,0.22,1.28,1
1035,0.77,0.1,1.06,1
1036,0.73,0.04,0.78,1
1037,0.75,-0.01,0.62,1
1038,0.72,-0.04,0.54,1
1039,0.77,-0.05,0.58,1
1040,0.83,-0.09,0.62,1
1041,0.81,-0.05,0.63,1
1042,0.82,-0.07,0.6,1
1043,0.78,-0.04,0.6,1
1044,0.85,-0.08,0.58,1
1045,0.83,-0.07,0.57,1
1046,0.77,-0.07,0.58,1
1047,0.83,-0.07,0.59,1
1048,0.82,-0.05,0.6,1
1049,0.82,-0.05,0.58,1
1050,0.83,-0.04,0.59,1
1051,0.82,-0.05,0.59,1
1052,0.78,-0.04,0.58,1
1053,0.83,-0.04,0.59,1
1054,0.78,-0.03,0.59,1
1055,0.83,-0.06,0.6,1
1056,0.8,-0.02,0.55,1
1057,0.83,-0.04,0.6,1
1058,0.8,-0.06,0.61,1
1059,0.84,-0.01,0.62,1
1060,0.8,-0.08,0.53,1
1061,0.77,-0.02,0.49,1
1062,0.8,0.0,0.59,1
1063,0.81,-0.09,0.56,1
1064,0.78,-0.01,0.59,1
1065,0.81,-0.02,0.68,1
1066,0.84,0.02,0.67,1
1067,0.83,-0.1,0.55,1
1068,0.81,-0.03,0.52,1
1069,0.83,-0.04,0.56,1
1070,0.82,-0.03,0.59,1
1071,0.82,-0.02,0.58,1
1072,0.82,-0.02,0.55,1
1073,0.8,-0.05,0.58,1
1074,0.84,-0.04,0.58,1
1075,0.81,-0.04,0.58,0
1076,0.82,-0.04,0.58,0
1077,0.81,-0.04,0.59,0
1078,0.81,-0.04,0.59,0
1079,0.82,-0.04,0.58,0
1080,0.8,-0.04,0.59,0
1081,0.8,-0.05,0.59,0
1082,0.8,-0.05,0.58,0
1083,0.8,-0.04,0.58,0
1084,0.81,-0.04,0.58,0
1085,0.81,-0.05,0.59,0
1086,0.79,-0.05,0.58,0
1087,0.8,-0.05,0.59,0
1088,0.81,-0.05,0.59,0
1089,0.81,-0.05,0.59,0
1090,0.82,-0.05,0.59,0
1091,0.79,-0.06,0.58,0
1092,0.81,-0.05,0.58,0
1093,0.8,-0.05,0.59,0
1094,0.8,-0.05,0.59,0
1095,0.81,-0.05,0.58,0
1096,0.8,-0.06,0.59,0
1097,0.82,-0.05,0.59,0
1098,0.81,-0.05,0.59,0
1099,0.81,-0.05,0.59,0
1100,0.81,-0.06,0.58,0
1101,0.8,-0.05,0.59,0
1102,0.81,-0.06,0.58,0
1103,0.82,-0.05,0.58,0
1104,0.81,-0.06,0.59,0
1105,0.81,-0.06,0.59,0
1106,0.81,-0.06,0.59,0
1107,0.81,-0.06,0.58,0
1108,0.82,-0.05,0.58,0
1109,0.82,-0.05,0.59,0
1110,0.81,-0.06,0.59,0
1111,0.81,-0.06,0.58,0
1112,0.82,-0.06,0.59,0
1113,0.81,-0.05,0.58,0
1114,0.82,-0.05,0.58,0
1115,0.81,-0.06,0.58,0
1116,0.81,-0.06,0.59,0
1117,0.82,-0.06,0.58,0
1118,0.81,-0.06,0.58,0
1119,0.8,-0.06,0.58,0
1120,0.82,-0.06,0.57,0
1121,0.81,-0.06,0.59,0
1122,0.82,-0.06,0.59,0
1123,0.82,-0.06,0.58,0
1124,0.81,-0.05,0.57,0
1125,0.8,-0.06,0.58,0
1126,0.82,-0.06,0.58,0
1127,0.81,-0.06,0.58,0
1128,0.82,-0.06,0.58,0
1129,0.82,-0.06,0.58,0
1130,0.81,-0.06,0.57,0
1131,0.81,-0.06,0.57,0
1132,0.81,-0.06,0.58,0
1133,0.82,-0.06,0.58,0
1134,0.82,-0.06,0.58,0
1135,0.82,-0.06,0.57,0
1136,0.82,-0.05,0.56,0
1137,0.83,-0.05,0.55,0
1138,0.8,-0.02,0.58,0
1139,0.79,-0.03,0.58,0
1140,0.86,-0.05,0.58,0
1141,0.77,-0.05,0.53,0
1142,0.84,-0.04,0.55,0
1143,0.82,-0.03,0.56,0
1144,0.83,-0.03,0.57,0
1145,0.84,-0.03,0.59,0
1146,0.81,-0.02,0.58,0
1147,0.82,-0.03,0.58,0
1148,0.81,-0.03,0.58,0
1149,0.8,-0.03,0.56,0
1150,0.81,-0.04,0.55,0
1151,0.83,-0.04,0.55,0
1152,0.84,-0.03,0.55,0
1153,0.83,-0.04,0.56,0
1154,0.84,-0.03,0.56,0
1155,0.84,-0.02,0.57,0
1156,0.84,-0.02,0.58,0
1157,0.84,-0.02,0.58,0
1158,0.84,-0.01,0.57,0
1159,0.83,-0.02,0.56,0
1160,0.82,-0.02,0.55,0
1161,0.83,-0.02,0.55,0
1162,0.82,-0.03,0.56,0
1163,0.84,-0.03,0.56,0
1164,0.84,-0.03,0.56,0
1165,0.83,-0.03,0.56,0
1166,0.83,-0.03,0.56,0
1167,0.83,-0.02,0.55,0
1168,0.83,-0.02,0.56,0
1169,0.83,-0.01,0.56,0
1170,0.82,-0.02,0.56,0
1171,0.83,-0.03,0.55,0
1172,0.84,-0.02,0.55,0
1173,0.84,-0.03,0.56,0
1174,0.82,-0.02,0.56,0
1175,0.84,-0.02,0.55,0
1176,0.85,-0.03,0.54,0
1177,0.85,-0.03,0.55,0
1178,0.85,-0.01,0.55,0
1179,0.84,-0.01,0.54,0
1180,0.84,-0.02,0.54,0
1181,0.84,-0.01,0.55,0
1182,0.85,-0.01,0.54,0
1183,0.85,-0.01,0.56,0
1184,0.83,-0.02,0.55,0
1185,0.82,-0.01,0.53,0
1186,0.84,-0.01,0.55,0
1187,0.84,-0.02,0.56,0
1188,0.83,-0.02,0.55,0
1189,0.84,0.0,0.53,0
1190,0.85,-0.01,0.56,0
1191,0.84,-0.03,0.56,0
1192,0.84,-0.01,0.55,0
1193,0.85,-0.01,0.54,0
1194,0.84,-0.02,0.54,0
1195,0.84,-0.01,0.54,0
1196,0.84,-0.01,0.55,0
1197,0.83,-0.01,0.55,0
1198,0.83,-0.02,0.55,0
1199,0.84,-0.02,0.55,0
1200,0.84,0.0,0.55,0
1201,0.82,-0.02,0.53,0
1202,0.83,-0.01,0.59,0
1203,0.84,-0.01,0.59,0
1204,0.83,-0.01,0.57,0
1205,0.84,-0.01,0.56,0
1206,0.81,-0.01,0.57,0
1207,0.83,-0.01,0.59,0
1208,0.83,-0.01,0.57,0
1209,0.81,0.0,0.57,0
1210,0.82,-0.01,0.57,0
1211,0.81,0.0,0.58,0
1212,0.82,-0.01,0.58,0
1213,0.81,-0.01,0.57,0
1214,0.83,-0.01,0.59,0
1215,0.81,-0.02,0.58,0
1216,0.82,-0.01,0.58,0
1217,0.81,-0.01,0.58,0
1218,0.81,-0.01,0.58,0
1219,0.82,-0.01,0.57,0
1220,0.8,-0.01,0.56,0
1221,0.81,-0.01,0.58,0
1222,0.82,-0.02,0.58,0
1223,0.82,-0.01,0.58,0
1224,0.83,-0.02,0.59,0
1225,0.84,-0.02,0.58,0
1226,0.82,-0.01,0.57,0
1227,0.82,-0.01,0.57,0
1228,0.81,-0.01,0.56,0
1229,0.81,-0.01,0.57,0
1230,0.81,-0.01,0.58,0
1231,0.82,-0.02,0.58,0
1232,0.83,-0.02,0.59,0
1233,0.83,-0.01,0.57,0
1234,0.83,-0.01,0.58,0
1235,0.82,-0.02,0.58,0
1236,0.81,-0.02,0.57,0
1237,0.82,-0.01,0.57,0
1238,0.81,-0.02,0.57,0
1239,0.83,-0.01,0.59,0
1240,0.82,-0.02,0.58,0
1241,0.81,-0.02,0.59,0
1242,0.82,-0.02,0.57,0
1243,0.82,-0.02,0.57,0
1244,0.8,-0.01,0.58,0
1245,0.78,-0.02,0.6,0
1246,0.81,-0.01,0.6,0
1247,0.77,-0.02,0.59,0
1248,0.8,-0.01,0.6,0
1249,0.82,-0.01,0.61,0
1250,0.79,-0.02,0.62,0
1251,0.79,0.0,0.65,0
1252,0.85,-0.02,0.57,0
1253,0.79,-0.01,0.55,0
1254,0.78,-0.01,0.58,0
1255,0.79,-0.01,0.59,0
1256,0.82,-0.01,0.6,0
1257,0.82,-0.02,0.58,0
1258,0.81,-0.02,0.58,0
1259,0.81,-0.02,0.58,0
1260,0.81,-0.02,0.59,0
1261,0.81,-0.02,0.59,0
1262,0.8,-0.01,0.58,0
1263,0.81,-0.01,0.59,0
1264,0.8,-0.02,0.59,0
1265,0.8,-0.01,0.59,0
1266,0.81,-0.01,0.59,0
1267,0.79,-0.02,0.6,0
1268,0.81,-0.01,0.58,0
1269,0.79,-0.01,0.59,0
1270,0.79,-0.02,0.59,0
1271,0.79,-0.01,0.58,0
1272,0.81,-0.01,0.59,0
1273,0.81,-0.02,0.59,0
1274,0.8,-0.03,0.6,0
1275,0.8,-0.02,0.59,1
1276,0.82,-0.01,0.59,1
1277,0.79,-0.02,0.59,1
1278,0.8,-0.02,0.59,1
1279,0.8,-0.01,0.59,1
1280,0.8,-0.02,0.59,1
1281,0.8,-0.01,0.58,1
1282,0.79,-0.02,0.59,1
1283,0.8,-0.01,0.59,1
1284,0.8,-0.02,0.59,1
1285,0.8,-0.01,0.59,1
1286,0.8,-0.02,0.59,1
1287,0.8,-0.02,0.59,1
1288,0.8,-0.01,0.59,1
1289,0.8,-0.01,0.58,1
1290,0.79,-0.01,0.59,1
1291,0.82,-0.02,0.58,1
1292,0.78,-0.02,0.59,1
1293,0.83,-0.01,0.66,1
1294,0.91,-0.12,0.66,1
1295,0.85,0.01,0.84,1
1296,0.98,-0.1,1.13,1
1297,1.1,-0.17,1.36,1
1298,1.35,-0.29,1.54,1
1299,1.48,-0.34,1.4,1
1300,1.4,-0.37,0.95,1
1301,1.21,-0.26,0.51,1
1302,0.74,-0.21,0.21,1
1303,0.24,-0.13,0.07,1
1304,-0.16,0.06,-0.02,1
1305,-0.42,0.12,-0.09,1
1306,-0.56,0.23,-0.1,1
1307,-0.53,0.31,0.0,1
1308,-0.48,0.48,0.08,1
1309,0.05,0.75,0.15,1
1310,0.58,0.74,0.45,1
1311,0.77,0.7,0.81,1
1312,1.53,0.5,1.15,1
1313,2.06,0.22,1.47,1
1314,2.01,-0.23,1.68,1
1315,1.9,-0.16,2.15,1
1316,1.42,0.14,2.47,1
1317,1.51,0.33,2.04,1
1318,1.64,0.44,1.6,1
1319,1.18,0.41,1.0,1
1320,0.91,0.27,0.32,1
1321,0.42,0.01,-0.16,1
1322,-0.16,-0.19,-0.4,1
1323,-0.17,-0.23,-0.54,1
1324,-0.09,-0.3,-0.72,1
1325,-0.18,-0.36,-0.88,1
1326,-0.05,-0.35,-0.91,1
1327,0.04,-0.15,-0.8,1
1328,0.38,0.08,-0.63,1
1329,0.83,0.24,-0.11,1
1330,1.08,0.48,0.74,1
1331,1.47,0.44,1.34,1
1332,1.32,0.58,1.61,1
1333,1.46,0.43,1.59,1
1334,1.23,0.5,1.51,1
1335,1.01,0.41,1.44,1
1336,0.84,0.29,1.18,1
1337,0.75,0.15,0.83,1
1338,0.79,0.06,0.6,1
1339,0.77,0.0,0.48,1
1340,0.8,0.0,0.5,1
1341,0.8,0.01,0.54,1
1342,0.85,0.01,0.56,1
1343,0.86,-0.01,0.56,1
1344,0.88,-0.02,0.56,1
1345,0.89,-0.03,0.53,1
1346,0.84,-0.01,0.53,1
1347,0.85,-0.01,0.55,1
1348,0.86,0.0,0.53,1
1349,0.85,-0.01,0.53,1
1350,0.83,0.0,0.52,1
1351,0.83,0.01,0.52,1
1352,0.86,0.0,0.53,1
1353,0.86,0.0,0.54,1
1354,0.86,0.0,0.52,1
1355,0.84,-0.01,0.52,1
1356,0.85,0.02,0.53,1
1357,0.86,-0.01,0.53,1
1358,0.81,0.02,0.54,1
1359,0.84,-0.04,0.52,1
1360,0.85,0.04,0.51,1
1361,0.81,0.0,0.55,1
1362,0.84,0.03,0.55,1
1363,0.86,0.0,0.61,1
1364,0.85,0.0,0.6,1
1365,0.9,0.04,0.55,1
1366,0.8,-0.02,0.47,1
1367,0.79,0.0,0.44,1
1368,0.77,0.02,0.58,1
1369,0.84,0.01,0.6,1
1370,0.82,0.03,0.64,1
1371,0.84,0.07,0.68,1
1372,0.82,-0.02,0.61,1
1373,0.8,0.01,0.47,1
1374,0.83,0.0,0.49,1
1375,0.82,0.0,0.56,0
1376,0.84,0.0,0.59,0
1377,0.84,0.0,0.58,0
1378,0.83,0.0,0.57,0
1379,0.85,-0.01,0.57,0
1380,0.85,0.0,0.57,0
1381,0.84,0.0,0.55,0
1382,0.82,0.0,0.57,0
1383,0.81,0.0,0.55,0
1384,0.8,0.01,0.53,0
1385,0.84,-0.01,0.56,0
1386,0.85,-0.01,0.57,0
1387,0.84,-0.01,0.56,0
1388,0.84,-0.01,0.54,0
1389,0.84,-0.01,0.55,0
1390,0.83,-0.01,0.56,0
1391,0.83,-0.01,0.56,0
1392,0.84,-0.01,0.55,0
1393,0.84,-0.01,0.55,0
1394,0.84,-0.01,0.55,0
1395,0.82,-0.01,0.54,0
1396,0.85,0.0,0.55,0
1397,0.85,-0.01,0.56,0
1398,0.84,-0.01,0.55,0
1399,0.85,-0.01,0.54,0
1400,0.84,-0.01,0.54,0
1401,0.83,0.0,0.56,0
1402,0.84,-0.01,0.55,0
1403,0.84,-0.01,0.54,0
1404,0.84,-0.01,0.55,0
1405,0.85,-0.01,0.55,0
1406,0.84,-0.01,0.54,0
1407,0.84,-0.01,0.54,0
1408,0.85,-0.01,0.55,0
1409,0.85,-0.01,0.54,0
1410,0.85,-0.01,0.54,0
1411,0.84,-0.01,0.55,0
1412,0.85,-0.01,0.54,0
1413,0.85,-0.01,0.53,0
1414,0.84,-0.01,0.54,0
1415,0.84,-0.01,0.54,0
1416,0.85,-0.01,0.53,0
1417,0.84,-0.01,0.53,0
1418,0.85,-0.01,0.53,0
1419,0.85,-0.01,0.54,0
1420,0.85,-0.02,0.54,0
1421,0.85,-0.02,0.54,0
1422,0.85,-0.01,0.53,0
1423,0.85,-0.02,0.53,0
1424,0.85,-0.02,0.53,0
1425,0.85,-0.01,0.54,0
1426,0.86,-0.03,0.53,0
1427,0.85,-0.03,0.54,0
1428,0.85,-0.02,0.53,0
1429,0.85,-0.01,0.54,0
1430,0.85,-0.02,0.54,0
1431,0.85,-0.02,0.54,0
1432,0.85,-0.02,0.53,0
1433,0.85,-0.02,0.53,0
1434,0.85,-0.02,0.53,0
1435,0.85,-0.02,0.53,0
1436,0.85,-0.02,0.53,0
1437,0.85,-0.02,0.54,0
1438,0.85,-0.02,0.54,0
1439,0.85,-0.02,0.54,0
1440,0.85,-0.03,0.53,0
1441,0.85,-0.02,0.52,0
1442,0.84,-0.02,0.53,0
1443,0.84,-0.02,0.52,0
1444,0.85,-0.02,0.52,0
1445,0.85,-0.02,0.54,0
1446,0.85,-0.03,0.54,0
1447,0.85,-0.02,0.54,0
1448,0.85,-0.02,0.53,0
1449,0.85,-0.02,0.53,0
1450,0.85,-0.02,0.52,0
1451,0.85,-0.02,0.53,0
1452,0.85,-0.02,0.53,0
1453,0.85,-0.02,0.53,0
1454,0.85,-0.02,0.53,0
1455,0.85,-0.02,0.53,0
1456,0.85,-0.02,0.53,0
1457,0.85,-0.02,0.53,0
1458,0.85,-0.02,0.53,0
1459,0.85,-0.02,0.53,0
1460,0.85,-0.02,0.53,0
1461,0.85,-0.02,0.53,0
1462,0.85,-0.02,0.53,0
1463,0.85,-0.02,0.52,0
1464,0.85,-0.01,0.52,0
1465,0.85,-0.02,0.52,0
1466,0.85,-0.02,0.53,0
1467,0.85,-0.02,0.53,0
1468,0.85,-0.03,0.53,0
1469,0.85,-0.03,0.52,0
1470,0.85,-0.02,0.53,0
1471,0.85,-0.02,0.52,0
1472,0.85,-0.02,0.52,0
1473,0.85,-0.02,0.52,0
1474,0.85,-0.02,0.52,0
1475,0.85,-0.02,0.52,0
1476,0.85,-0.02,0.52,0
1477,0.85,-0.02,0.52,0
1478,0.85,-0.02,0.52,0
1479,0.85,-0.02,0.52,0
1480,0.86,-0.02,0.52,0
1481,0.85,-0.02,0.52,0
1482,0.85,-0.02,0.52,0
1483,0.85,-0.02,0.52,0
1484,0.85,-0.02,0.52,0
1485,0.85,-0.02,0.52,0
1486,0.85,-0.02,0.52,0
1487,0.85,-0.02,0.52,0
1488,0.85,-0.02,0.52,0
1489,0.85,-0.02,0.52,0
1490,0.85,-0.02,0.52,0
1491,0.85,-0.01,0.52,0
1492,0.85,-0.02,0.52,0
1493,0.85,-0.02,0.52,0
1494,0.85,-0.02,0.52,0
1495,0.85,-0.02,0.52,0
1496,0.85,-0.02,0.52,0
1497,0.85,-0.02,0.51,0
1498,0.85,-0.03,0.53,0
1499,0.85,-0.02,0.52,0
1500,0.85,-0.02,0.52,0
1501,0.85,-0.02,0.53,0
1502,0.85,-0.02,0.53,0
1503,0.85,-0.02,0.53,0
1504,0.85,-0.02,0.53,0
1505,0.85,-0.02,0.54,0
1506,0.85,-0.02,0.52,0
1507,0.84,-0.02,0.53,0
1508,0.85,-0.02,0.53,0
1509,0.85,-0.02,0.53,0
1510,0.85,-0.02,0.53,0
1511,0.84,-0.02,0.53,0
1512,0.85,-0.02,0.52,0
1513,0.84,-0.02,0.53,0
1514,0.84,-0.02,0.53,0
1515,0.85,-0.02,0.54,0
1516,0.85,-0.02,0.55,0
1517,0.85,-0.02,0.54,0
1518,0.85,-0.02,0.54,0
1519,0.85,-0.02,0.54,0
1520,0.84,-0.01,0.53,0
1521,0.85,-0.02,0.53,0
1522,0.84,-0.01,0.53,0
1523,0.83,-0.02,0.54,0
1524,0.84,-0.02,0.56,0
1525,0.84,-0.02,0.56,0
1526,0.85,-0.01,0.56,0
1527,0.85,-0.02,0.54,0
1528,0.84,-0.02,0.54,0
1529,0.84,-0.01,0.54,0
1530,0.84,-0.02,0.53,0
1531,0.84,-0.01,0.54,0
1532,0.84,-0.02,0.55,0
1533,0.84,-0.01,0.55,0
1534,0.85,-0.02,0.54,0
1535,0.84,-0.01,0.56,0
1536,0.84,-0.01,0.55,0
1537,0.85,-0.02,0.55,0
1538,0.85,-0.02,0.56,0
1539,0.82,-0.02,0.54,0
1540,0.83,-0.01,0.55,0
1541,0.85,-0.02,0.54,0
1542,0.84,-0.01,0.55,0
1543,0.85,-0.02,0.56,0
1544,0.84,-0.02,0.55,0
1545,0.84,-0.01,0.56,0
1546,0.85,-0.02,0.55,0
1547,0.83,-0.01,0.56,0
1548,0.84,-0.03,0.54,0
1549,0.83,-0.01,0.56,0
1550,0.83,-0.02,0.56,0
1551,0.83,-0.02,0.56,0
1552,0.84,-0.02,0.57,0
1553,0.83,-0.01,0.56,0
1554,0.82,-0.01,0.56,0
1555,0.82,-0.01,0.57,0
1556,0.83,-0.01,0.56,0
1557,0.83,-0.01,0.57,0
1558,0.83,-0.01,0.57,0
1559,0.83,-0.01,0.56,0
1560,0.83,-0.01,0.57,0
1561,0.82,-0.02,0.56,0
1562,0.82,-0.01,0.55,0
1563,0.84,-0.01,0.57,0
1564,0.82,-0.01,0.57,0
1565,0.83,-0.02,0.54,0
1566,0.81,0.0,0.57,0
1567,0.84,-0.05,0.57,0
1568,0.82,0.0,0.58,0
1569,0.85,-0.03,0.59,0
1570,0.84,0.01,0.6,0
1571,0.78,-0.03,0.59,0
1572,0.79,-0.03,0.54,0
1573,0.84,-0.01,0.58,0
1574,0.78,-0.01,0.61,0
1575,0.9,0.06,0.59,0
1576,0.81,-0.01,0.55,0
1577,0.84,0.0,0.55,0
1578,0.82,-0.02,0.55,0
1579,0.81,0.0,0.56,0
1580,0.84,-0.01,0.57,0
1581,0.84,-0.01,0.57,0
1582,0.84,-0.01,0.57,0
1583,0.83,-0.01,0.57,0
1584,0.83,-0.01,0.56,0
1585,0.82,-0.01,0.57,0
1586,0.82,0.0,0.57,0
1587,0.83,-0.01,0.55,0
1588,0.84,-0.01,0.57,0
1589,0.83,-0.01,0.57,0
1590,0.82,-0.01,0.57,0
1591,0.84,-0.01,0.56,0
1592,0.83,-0.02,0.56,0
1593,0.83,-0.01,0.57,0
1594,0.83,-0.02,0.56,0
1595,0.83,-0.01,0.56,0
1596,0.83,-0.01,0.56,0
1597,0.83,-0.01,0.56,0
1598,0.83,-0.01,0.56,0
1599,0.83,-0.01,0.56,0
1600,0.84,-0.02,0.57,1
1601,0.83,-0.01,0.57,1
1602,0.83,-0.01,0.56,1
1603,0.83,-0.01,0.55,1
1604,0.83,-0.02,0.56,1
1605,0.83,-0.02,0.56,1
1606,0.83,-0.02,0.56,1
1607,0.83,-0.01,0.56,1
1608,0.84,-0.01,0.57,1
1609,0.84,-0.01,0.57,1
1610,0.83,-0.02,0.55,1
1611,0.83,-0.01,0.57,1
1612,0.83,-0.01,0.56,1
1613,0.83,-0.01,0.55,1
1614,0.83,-0.01,0.56,1
1615,0.83,-0.01,0.55,1
1616,0.85,-0.02,0.57,1
1617,0.83,-0.01,0.57,1
1618,0.83,-0.01,0.58,1
1619,0.85,-0.01,0.64,1
1620,0.84,-0.07,0.65,1
1621,0.88,0.0,0.84,1
1622,0.83,-0.03,1.22,1
1623,1.06,-0.16,1.49,1
1624,1.38,-0.27,1.54,1
1625,1.58,-0.35,1.34,1
1626,1.48,-0.31,0.85,1
1627,1.24,-0.3,0.46,1
1628,0.72,-0.26,0.21,1
1629,0.19,-0.11,-0.03,1
1630,-0.14,0.11,-0.12,1
1631,-0.51,0.28,-0.2,1
1632,-0.56,0.4,-0.26,1
1633,-0.59,0.58,-0.22,1
1634,-0.15,0.79,-0.05,1
1635,0.15,0.94,0.2,1
1636,0.87,0.85,0.65,1
1637,1.51,0.79,1.3,1
1638,1.98,0.48,1.35,1
1639,2.51,-0.04,1.7,1
1640,1.93,0.05,2.19,1
1641,1.68,0.14,2.46,1
1642,1.36,0.35,2.09,1
1643,1.41,0.39,1.52,1
1644,1.05,0.33,0.99,1
1645,0.86,0.18,0.46,1
1646,0.35,0.02,-0.04,1
1647,-0.08,-0.18,-0.36,1
1648,0.06,-0.27,-0.58,1
1649,-0.11,-0.37,-0.76,1
1650,-0.08,-0.3,-0.9,1
1651,0.09,-0.19,-0.84,1
1652,0.15,0.02,-0.71,1
1653,0.66,0.13,-0.45,1
1654,0.99,0.35,0.17,1
1655,1.46,0.55,1.44,1
1656,1.37,0.49,1.79,1
1657,1.38,0.48,1.83,1
1658,1.18,0.43,1.56,1
1659,1.05,0.34,1.34,1
1660,0.76,0.25,1.09,1
1661,0.68,0.17,0.87,1
1662,0.7,0.11,0.66,1
1663,0.73,0.07,0.51,1
1664,0.82,0.02,0.57,1
1665,0.89,-0.05,0.59,1
1666,0.8,-0.04,0.62,1
1667,0.81,0.0,0.6,1
1668,0.85,-0.01,0.57,1
1669,0.85,-0.02,0.55,1
1670,0.85,-0.02,0.55,1
1671,0.85,-0.02,0.56,1
1672,0.84,-0.02,0.57,1
1673,0.84,0.0,0.56,1
1674,0.84,-0.02,0.54,1
1675,0.82,0.0,0.57,1
1676,0.84,-0.01,0.55,1
1677,0.79,0.01,0.58,1
1678,0.81,-0.04,0.56,1
1679,0.8,0.04,0.59,1
1680,0.85,-0.01,0.6,1
1681,0.84,-0.02,0.57,1
1682,0.83,-0.02,0.6,1
1683,0.88,0.06,0.64,1
1684,0.77,-0.03,0.55,1
1685,0.81,0.01,0.44,1
1686,0.76,0.02,0.59,1
1687,0.84,-0.02,0.55,1
1688,0.78,0.05,0.64,1
1689,0.84,0.02,0.66,1
1690,0.84,-0.04,0.63,1
1691,0.83,-0.03,0.5,1
1692,0.83,-0.02,0.53,1
1693,0.79,0.01,0.56,1
1694,0.8,0.0,0.56,1
1695,0.84,0.0,0.56,1
1696,0.84,0.0,0.59,1
1697,0.82,-0.02,0.59,1
1698,0.83,-0.01,0.58,1
1699,0.82,-0.01,0.57,1
1700,0.81,-0.01,0.58,0
1701,0.8,-0.01,0.57,0
1702,0.81,-0.01,0.57,0
1703,0.82,-0.01,0.56,0
1704,0.8,-0.02,0.56,0
1705,0.83,-0.02,0.58,0
1706,0.83,-0.02,0.57,0
1707,0.83,-0.01,0.56,0
1708,0.84,-0.02,0.58,0
1709,0.83,-0.02,0.58,0
1710,0.83,-0.02,0.56,0
1711,0.83,-0.01,0.56,0
1712,0.83,-0.01,0.57,0
1713,0.83,-0.02,0.57,0
1714,0.83,-0.02,0.56,0
1715,0.84,-0.01,0.57,0
1716,0.83,-0.02,0.57,0
1717,0.83,-0.02,0.57,0
1718,0.82,-0.01,0.56,0
1719,0.82,-0.01,0.56,0
1720,0.83,-0.02,0.57,0
1721,0.83,-0.02,0.57,0
1722,0.83,-0.02,0.56,0
1723,0.84,-0.02,0.56,0
1724,0.82,-0.02,0.57,0
1725,0.82,-0.01,0.57,0
1726,0.84,-0.01,0.56,0
1727,0.83,-0.02,0.56,0
1728,0.84,-0.02,0.56,0
1729,0.83,-0.02,0.57,0
1730,0.83,-0.02,0.57,0
1731,0.83,-0.02,0.57,0
1732,0.82,-0.02,0.56,0
1733,0.83,-0.02,0.56,0
1734,0.82,-0.01,0.57,0
1735,0.83,-0.02,0.56,0
1736,0.84,-0.02,0.57,0
1737,0.84,-0.02,0.57,0
1738,0.83,-0.02,0.57,0
1739,0.83,-0.02,0.55,0
1740,0.84,-0.01,0.56,0
1741,0.82,-0.02,0.56,0
1742,0.83,-0.02,0.55,0
1743,0.84,-0.02,0.57,0
1744,0.83,-0.02,0.56,0
1745,0.83,-0.02,0.56,0
1746,0.84,-0.02,0.57,0
1747,0.83,-0.02,0.56,0
1748,0.84,-0.02,0.56,0
1749,0.84,-0.02,0.55,0
1750,0.83,-0.02,0.55,0
1751,0.83,-0.02,0.55,0
1752,0.83,-0.02,0.55,0
1753,0.85,-0.02,0.57,0
1754,0.82,-0.02,0.56,0
1755,0.84,-0.03,0.56,0
1756,0.84,-0.03,0.56,0
1757,0.83,-0.02,0.56,0
1758,0.83,-0.02,0.56,0
1759,0.84,-0.02,0.56,0
1760,0.83,-0.03,0.55,0
1761,0.83,-0.03,0.56,0
1762,0.84,-0.02,0.55,0
1763,0.84,-0.02,0.56,0
1764,0.84,-0.02,0.56,0
1765,0.84,-0.03,0.55,0
1766,0.83,-0.03,0.56,0
1767,0.84,-0.02,0.56,0
1768,0.84,-0.02,0.56,0
1769,0.82,-0.02,0.55,0
1770,0.84,-0.02,0.56,0
1771,0.83,-0.02,0.57,0
1772,0.84,-0.03,0.56,0
1773,0.83,-0.02,0.55,0
1774,0.84,-0.03,0.55,0
1775,0.83,-0.02,0.56,0
1776,0.83,-0.03,0.55,0
1777,0.83,-0.03,0.55,0
1778,0.84,-0.03,0.56,0
1779,0.84,-0.03,0.56,0
1780,0.83,-0.02,0.56,0
1781,0.84,-0.03,0.56,0
1782,0.84,-0.03,0.55,0
1783,0.84,-0.02,0.56,0
1784,0.83,-0.03,0.55,0
1785,0.83,-0.02,0.56,0
1786,0.83,-0.02,0.56,0
1787,0.83,-0.03,0.56,0
1788,0.83,-0.02,0.56,0
1789,0.84,-0.03,0.56,0
1790,0.84,-0.03,0.56,0
1791,0.84,-0.03,0.56,0
1792,0.83,-0.02,0.55,0
1793,0.84,-0.03,0.56,0
1794,0.83,-0.02,0.56,0
1795,0.84,-0.03,0.56,0
1796,0.84,-0.02,0.56,0
1797,0.84,-0.02,0.57,0
1798,0.83,-0.02,0.56,0
1799,0.83,-0.02,0.56,0
1800,0.84,-0.02,0.56,0
1801,0.83,-0.02,0.56,0
1802,0.83,-0.03,0.56,0
1803,0.85,-0.02,0.56,0
1804,0.84,-0.03,0.57,0
1805,0.84,-0.03,0.57,0
1806,0.84,-0.03,0.56,0
1807,0.84,-0.03,0.55,0
1808,0.83,-0.03,0.55,0
1809,0.83,-0.03,0.55,0
1810,0.84,-0.03,0.56,0
1811,0.84,-0.03,0.56,0
1812,0.84,-0.03,0.56,0
1813,0.84,-0.03,0.56,0
1814,0.83,-0.03,0.56,0
1815,0.83,-0.03,0.56,0
1816,0.84,-0.03,0.55,0
1817,0.84,-0.03,0.56,0
1818,0.83,-0.03,0.56,0
1819,0.84,-0.03,0.55,0
1820,0.84,-0.03,0.57,0
1821,0.84,-0.03,0.57,0
1822,0.84,-0.03,0.56,0
1823,0.84,-0.03,0.56,0
1824,0.83,-0.03,0.55,0
1825,0.84,-0.03,0.56,0
1826,0.83,-0.03,0.56,0
1827,0.84,-0.03,0.56,0
1828,0.83,-0.04,0.56,0
1829,0.84,-0.03,0.56,0
1830,0.84,-0.03,0.56,0
1831,0.83,-0.03,0.56,0
1832,0.82,-0.03,0.56,0
1833,0.83,-0.02,0.56,0
1834,0.83,-0.02,0.57,0
1835,0.83,-0.03,0.56,0
1836,0.84,-0.03,0.57,0
1837,0.84,-0.03,0.57,0
1838,0.83,-0.03,0.56,0
1839,0.84,-0.03,0.56,0
1840,0.83,-0.03,0.56,0
1841,0.83,-0.03,0.56,0
1842,0.83,-0.04,0.55,0
1843,0.8,-0.02,0.57,0
1844,0.84,-0.03,0.56,0
1845,0.8,-0.04,0.57,0
1846,0.8,-0.01,0.59,0
1847,0.83,-0.02,0.6,0
1848,0.84,-0.02,0.6,0
1849,0.82,-0.03,0.58,0
1850,0.8,-0.01,0.59,0
1851,0.78,-0.03,0.59,0
1852,0.81,-0.01,0.59,0
1853,0.81,-0.02,0.58,0
1854,0.78,-0.02,0.58,0
1855,0.8,-0.01,0.57,0
1856,0.77,-0.01,0.63,0
1857,0.83,-0.02,0.61,0
1858,0.81,-0.01,0.6,0
1859,0.77,-0.01,0.61,0
1860,0.83,0.0,0.61,0
1861,0.81,-0.03,0.55,0
1862,0.8,-0.01,0.56,0
1863,0.8,-0.02,0.57,0
1864,0.8,-0.02,0.59,0
1865,0.82,-0.02,0.59,0
1866,0.83,-0.03,0.58,0
1867,0.82,-0.03,0.59,0
1868,0.82,-0.03,0.59,0
1869,0.82,-0.02,0.59,0
1870,0.81,-0.03,0.58,0
1871,0.8,-0.02,0.57,0
1872,0.81,-0.01,0.57,0
1873,0.8,-0.03,0.58,0
1874,0.81,-0.02,0.59,0
1875,0.82,-0.02,0.59,1
1876,0.83,-0.02,0.59,1
1877,0.81,-0.03,0.59,1
1878,0.82,-0.02,0.58,1
1879,0.81,-0.02,0.58,1
1880,0.8,-0.02,0.58,1
1881,0.82,-0.02,0.58,1
1882,0.81,-0.03,0.58,1
1883,0.82,-0.02,0.58,1
1884,0.83,-0.02,0.58,1
1885,0.82,-0.03,0.59,1
1886,0.82,-0.03,0.59,1
1887,0.81,-0.03,0.58,1
1888,0.81,-0.02,0.58,1
1889,0.8,-0.02,0.57,1
1890,0.81,-0.03,0.57,1
1891,0.82,-0.03,0.6,1
1892,0.79,0.01,0.63,1
1893,0.86,-0.01,0.68,1
1894,0.87,0.0,0.91,1
1895,0.86,0.0,1.25,1
1896,1.17,-0.21,1.49,1
1897,1.71,-0.42,1.59,1
1898,1.72,-0.46,1.27,1
1899,1.41,-0.37,0.61,1
1900,0.85,-0.23,0.1,1
1901,0.31,-0.1,-0.01,1
1902,-0.12,0.06,0.03,1
1903,-0.42,0.31,0.04,1
1904,-0.51,0.38,0.07,1
1905,-0.35,0.43,0.02,1
1906,-0.33,0.53,-0.03,1
1907,0.07,0.74,0.07,1
1908,0.56,0.84,0.24,1
1909,1.28,0.73,0.75,1
1910,1.58,0.6,0.91,1
1911,2.35,0.18,1.41,1
1912,2.41,0.4,2.1,1
1913,1.93,0.6,2.66,1
1914,1.66,0.76,2.31,1
1915,1.44,0.79,1.61,1
1916,1.54,0.71,1.1,1
1917,1.18,0.56,0.58,1
1918,0.47,0.32,0.01,1
1919,0.15,0.05,-0.3,1
1920,-0.06,-0.12,-0.57,1
1921,-0.27,-0.3,-0.74,1
1922,-0.27,-0.4,-0.94,1
1923,-0.27,-0.29,-0.97,1
1924,0.0,-0.06,-0.87,1
1925,0.4,0.22,-0.67,1
1926,0.86,0.37,-0.01,1
1927,1.18,0.33,1.21,1
1928,1.31,0.44,1.73,1
1929,1.2,0.35,1.7,1
1930,1.09,0.36,1.6,1
1931,1.09,0.34,1.47,1
1932,0.92,0.31,1.31,1
1933,0.73,0.2,1.15,1
1934,0.72,0.11,0.8,1
1935,0.75,0.02,0.64,1
1936,0.76,-0.03,0.59,1
1937,0.79,-0.03,0.62,1
1938,0.77,-0.04,0.66,1
1939,0.77,-0.04,0.6,1
1940,0.83,-0.05,0.59,1
1941,0.83,-0.04,0.58,1
1942,0.78,-0.03,0.59,1
1943,0.85,-0.03,0.58,1
1944,0.85,-0.04,0.58,1
1945,0.83,-0.05,0.58,1
1946,0.8,-0.01,0.57,1
1947,0.85,-0.09,0.56,1
1948,0.79,0.03,0.59,1
1949,0.81,-0.07,0.6,1
1950,0.85,-0.01,0.54,1
1951,0.77,0.02,0.62,1
1952,0.82,-0.03,0.6,1
1953,0.8,-0.05,0.62,1
1954,0.83,0.02,0.61,1
1955,0.82,-0.01,0.59,1
1956,0.81,-0.1,0.51,1
1957,0.76,0.08,0.51,1
1958,0.83,-0.03,0.63,1
1959,0.82,-0.02,0.56,1
1960,0.78,-0.01,0.67,1
1961,0.84,-0.01,0.7,1
1962,0.85,0.04,0.61,1
1963,0.78,-0.03,0.48,1
1964,0.79,-0.01,0.48,1
1965,0.83,-0.01,0.56,1
1966,0.81,-0.03,0.59,1
1967,0.86,-0.01,0.59,1
1968,0.84,-0.02,0.58,1
1969,0.84,-0.02,0.59,1
1970,0.8,-0.02,0.57,1
1971,0.8,-0.02,0.56,1
1972,0.81,-0.01,0.55,1
1973,0.82,-0.01,0.57,1
1974,0.83,-0.01,0.58,1
1975,0.83,-0.02,0.59,0
1976,0.84,-0.02,0.59,0
1977,0.83,-0.02,0.58,0
1978,0.84,-0.02,0.57,0
1979,0.84,-0.01,0.58,0
1980,0.82,-0.02,0.58,0
1981,0.81,-0.02,0.58,0
1982,0.83,-0.01,0.57,0
1983,0.81,-0.02,0.57,0
1984,0.83,-0.02,0.57,0
1985,0.82,-0.02,0.58,0
1986,0.82,-0.02,0.56,0
1987,0.83,-0.02,0.58,0
1988,0.83,-0.02,0.58,0
1989,0.81,-0.02,0.57,0
1990,0.83,-0.02,0.57,0
1991,0.83,-0.02,0.57,0
1992,0.82,-0.02,0.57,0
1993,0.83,-0.02,0.57,0
1994,0.83,-0.02,0.57,0
1995,0.84,-0.03,0.58,0
1996,0.82,-0.03,0.58,0
1997,0.83,-0.03,0.56,0
1998,0.84,-0.03,0.56,0
1999,0.82,-0.02,0.57,0
2000,0.82,-0.02,0.57,0
2001,0.83,-0.02,0.56,0
2002,0.83,-0.02,0.56,0
2003,0.83,-0.02,0.56,0
2004,0.83,-0.02,0.57,0
2005,0.83,-0.03,0.58,0
2006,0.84,-0.03,0.57,0
2007,0.83,-0.04,0.57,0
2008,0.83,-0.03,0.57,0
2009,0.83,-0.02,0.57,0
2010,0.83,-0.02,0.56,0
2011,0.83,-0.03,0.56,0
2012,0.83,-0.02,0.56,0
2013,0.84,-0.02,0.56,0
2014,0.83,-0.02,0.56,0
2015,0.84,-0.03,0.56,0
2016,0.83,-0.03,0.57,0
2017,0.84,-0.02,0.56,0
2018,0.84,-0.02,0.56,0
2019,0.83,-0.03,0.56,0
2020,0.84,-0.02,0.56,0
2021,0.84,-0.03,0.55,0
2022,0.83,-0.03,0.55,0
2023,0.84,-0.03,0.56,0
2024,0.85,-0.03,0.55,0
2025,0.84,-0.02,0.56,0
2026,0.84,-0.03,0.54,0
2027,0.83,-0.02,0.54,0
2028,0.85,-0.02,0.56,0
2029,0.84,-0.03,0.55,0
2030,0.84,-0.03,0.54,0
2031,0.84,-0.03,0.55,0
2032,0.83,-0.03,0.54,0
2033,0.85,-0.03,0.54,0
2034,0.84,-0.02,0.55,0
2035,0.84,-0.03,0.56,0
2036,0.85,-0.03,0.55,0
2037,0.84,-0.03,0.56,0
2038,0.84,-0.03,0.55,0
2039,0.84,-0.02,0.54,0
2040,0.84,-0.02,0.54,0
2041,0.84,-0.03,0.55,0
2042,0.84,-0.02,0.55,0
2043,0.84,-0.03,0.54,0
2044,0.84,-0.03,0.55,0
2045,0.84,-0.03,0.55,0
2046,0.84,-0.02,0.55,0
2047,0.85,-0.03,0.55,0
2048,0.85,-0.03,0.54,0
2049,0.85,-0.03,0.55,0
2050,0.84,-0.03,0.54,0
2051,0.85,-0.03,0.55,0
2052,0.84,-0.03,0.54,0
2053,0.84,-0.03,0.54,0
2054,0.84,-0.03,0.54,0
2055,0.84,-0.03,0.54,0
2056,0.85,-0.04,0.55,0
2057,0.84,-0.04,0.55,0
2058,0.84,-0.03,0.54,0
2059,0.85,-0.03,0.55,0
2060,0.84,-0.03,0.54,0
2061,0.84,-0.03,0.54,0
2062,0.84,-0.04,0.54,0
2063,0.85,-0.03,0.55,0
2064,0.84,-0.04,0.55,0
2065,0.85,-0.04,0.55,0
2066,0.84,-0.03,0.55,0
2067,0.84,-0.04,0.55,0
2068,0.84,-0.04,0.54,0
2069,0.85,-0.03,0.54,0
2070,0.85,-0.03,0.54,0
2071,0.85,-0.04,0.56,0
2072,0.84,-0.04,0.55,0
2073,0.84,-0.03,0.54,0
2074,0.85,-0.03,0.54,0
2075,0.84,-0.03,0.54,0
2076,0.84,-0.03,0.54,0
2077,0.84,-0.03,0.55,0
2078,0.84,-0.04,0.55,0
2079,0.84,-0.04,0.55,0
2080,0.85,-0.04,0.54,0
2081,0.84,-0.04,0.55,0
2082,0.84,-0.04,0.55,0
2083,0.85,-0.04,0.54,0
2084,0.84,-0.04,0.54,0
2085,0.84,-0.04,0.55,0
2086,0.85,-0.04,0.55,0
2087,0.84,-0.04,0.54,0
2088,0.85,-0.04,0.54,0
2089,0.85,-0.04,0.54,0
2090,0.84,-0.03,0.54,0
2091,0.84,-0.04,0.54,0
2092,0.85,-0.04,0.55,0
2093,0.84,-0.04,0.54,0
2094,0.84,-0.04,0.54,0
2095,0.85,-0.04,0.55,0
2096,0.84,-0.04,0.54,0
2097,0.84,-0.04,0.54,0
2098,0.84,-0.04,0.54,0
2099,0.84,-0.04,0.54,0
2100,0.85,-0.04,0.55,0
2101,0.84,-0.04,0.55,0
2102,0.84,-0.04,0.55,0
2103,0.85,-0.04,0.54,0
2104,0.84,-0.03,0.54,0
2105,0.84,-0.04,0.54,0
2106,0.84,-0.04,0.54,0
2107,0.84,-0.04,0.55,0
2108,0.85,-0.04,0.55,0
2109,0.85,-0.04,0.55,0
2110,0.84,-0.04,0.55,0
2111,0.84,-0.04,0.55,0
2112,0.84,-0.04,0.54,0
2113,0.84,-0.04,0.55,0
2114,0.84,-0.04,0.54,0
2115,0.85,-0.04,0.55,0
2116,0.84,-0.04,0.56,0
2117,0.84,-0.05,0.56,0
2118,0.84,-0.04,0.54,0
2119,0.85,-0.04,0.55,0
2120,0.83,-0.04,0.55,0
2121,0.84,-0.04,0.55,0
2122,0.84,-0.04,0.55,0
2123,0.84,-0.05,0.56,0
2124,0.84,-0.04,0.57,0
2125,0.83,-0.04,0.57,0
2126,0.83,-0.02,0.57,0
2127,0.83,-0.03,0.57,0
2128,0.78,-0.04,0.59,0
2129,0.82,-0.01,0.58,0
2130,0.84,-0.02,0.6,0
2131,0.77,-0.03,0.58,0
2132,0.82,-0.01,0.59,0
2133,0.77,-0.05,0.6,0
2134,0.76,-0.02,0.62,0
2135,0.79,-0.01,0.62,0
2136,0.8,-0.03,0.65,0
2137,0.8,-0.03,0.56,0
2138,0.78,-0.04,0.57,0
2139,0.82,-0.02,0.58,0
2140,0.83,-0.03,0.59,0
2141,0.81,-0.03,0.59,0
2142,0.8,-0.03,0.59,0
2143,0.82,-0.04,0.58,0
2144,0.81,-0.04,0.58,0
2145,0.8,-0.04,0.58,0
2146,0.79,-0.03,0.59,0
2147,0.83,-0.03,0.59,0
2148,0.81,-0.04,0.59,0
2149,0.81,-0.04,0.59,0
2150,0.81,-0.04,0.59,1
2151,0.8,-0.03,0.59,1
2152,0.81,-0.02,0.59,1
2153,0.81,-0.04,0.58,1
2154,0.81,-0.03,0.59,1
2155,0.81,-0.04,0.59,1
2156,0.81,-0.04,0.59,1
2157,0.8,-0.03,0.59,1
2158,0.8,-0.04,0.59,1
2159,0.8,-0.04,0.6,1
2160,0.8,-0.04,0.59,1
2161,0.81,-0.03,0.59,1
2162,0.8,-0.04,0.59,1
2163,0.79,-0.03,0.59,1
2164,0.8,-0.04,0.59,1
2165,0.79,-0.03,0.59,1
2166,0.81,-0.04,0.59,1
2167,0.8,-0.03,0.62,1
2168,0.87,-0.04,0.66,1
2169,0.89,-0.05,0.86,1
2170,0.84,-0.05,1.21,1
2171,1.39,-0.34,1.5,1
2172,1.1,-0.21,1.47,1
2173,1.55,-0.38,1.38,1
2174,1.46,-0.41,1.05,1
2175,1.21,-0.28,0.62,1
2176,0.77,-0.12,0.19,1
2177,0.17,0.03,-0.03,1
2178,-0.21,0.21,-0.13,1
2179,-0.48,0.24,-0.25,1
2180,-0.58,0.36,-0.33,1
2181,-0.65,0.54,-0.27,1
2182,-0.29,0.93,-0.15,1
2183,0.27,1.11,0.09,1
2184,1.12,1.05,0.65,1
2185,1.46,0.8,1.08,1
2186,2.16,0.44,1.29,1
2187,2.18,0.36,1.9,1
2188,1.96,0.4,2.38,1
2189,1.75,0.53,2.42,1
2190,1.49,0.58,1.88,1
2191,1.53,0.51,1.44,1
2192,1.19,0.47,0.91,1
2193,0.77,0.33,0.43,1
2194,0.32,0.12,0.02,1
2195,-0.14,-0.05,-0.27,1
2196,-0.03,-0.2,-0.48,1
2197,-0.26,-0.31,-0.69,1
2198,-0.26,-0.45,-0.96,1
2199,-0.09,-0.33,-1.04,1
2200,0.21,-0.03,-0.83,1
2201,0.69,0.24,-0.47,1
2202,0.84,0.34,0.17,1
2203,1.1,0.47,1.32,1
2204,1.31,0.28,1.52,1
2205,1.3,0.29,1.57,1
2206,1.3,0.31,1.45,1
2207,1.26,0.27,1.38,1
2208,0.94,0.24,1.24,1
2209,0.77,0.17,1.02,1
2210,0.76,0.11,0.8,1
2211,0.84,0.04,0.59,1
2212,0.84,0.0,0.55,1
2213,0.88,-0.03,0.56,1
2214,0.84,-0.04,0.58,1
2215,0.86,-0.02,0.55,1
2216,0.87,-0.05,0.51,1
2217,0.89,-0.05,0.5,1
2218,0.86,-0.05,0.51,1
2219,0.85,-0.03,0.52,1
2220,0.86,-0.04,0.5,1
2221,0.87,-0.04,0.49,1
2222,0.86,-0.03,0.5,1
2223,0.86,-0.03,0.5,1
2224,0.85,-0.03,0.51,1
2225,0.85,-0.02,0.51,1
2226,0.86,-0.04,0.52,1
2227,0.85,-0.02,0.53,1
2228,0.84,-0.04,0.56,1
2229,0.85,-0.02,0.55,1
2230,0.85,-0.05,0.54,1
2231,0.78,-0.01,0.58,1
2232,0.86,-0.03,0.57,1
2233,0.85,-0.04,0.63,1
2234,0.85,0.0,0.55,1
2235,0.81,-0.06,0.46,1
2236,0.73,0.04,0.55,1
2237,0.85,-0.02,0.6,1
2238,0.86,-0.01,0.55,1
2239,0.81,-0.03,0.62,1
2240,0.77,0.0,0.66,1
2241,0.82,-0.01,0.59,1
2242,0.83,-0.04,0.5,1
2243,0.8,0.0,0.51,1
2244,0.83,-0.02,0.55,1
2245,0.85,-0.02,0.56,1
2246,0.85,-0.02,0.55,1
2247,0.84,-0.04,0.55,1
2248,0.85,-0.03,0.55,1
2249,0.85,-0.04,0.58,1
2250,0.85,-0.04,0.57,0
2251,0.83,-0.04,0.55,0
2252,0.82,-0.04,0.54,0
2253,0.81,-0.04,0.54,0
2254,0.84,-0.04,0.55,0
2255,0.84,-0.03,0.57,0
2256,0.85,-0.05,0.56,0
2257,0.85,-0.04,0.56,0
2258,0.85,-0.03,0.56,0
2259,0.83,-0.03,0.54,0
2260,0.84,-0.02,0.54,0
2261,0.82,-0.04,0.54,0
2262,0.83,-0.04,0.55,0
2263,0.84,-0.03,0.55,0
2264,0.85,-0.04,0.55,0
2265,0.84,-0.03,0.56,0
2266,0.84,-0.04,0.55,0
2267,0.85,-0.04,0.54,0
2268,0.84,-0.03,0.54,0
2269,0.83,-0.02,0.54,0
2270,0.85,-0.04,0.56,0
2271,0.85,-0.04,0.56,0
2272,0.85,-0.03,0.55,0
2273,0.85,-0.03,0.54,0
2274,0.84,-0.03,0.54,0
2275,0.84,-0.03,0.54,0
2276,0.85,-0.03,0.54,0
2277,0.84,-0.04,0.55,0
2278,0.85,-0.04,0.56,0
2279,0.85,-0.03,0.55,0
2280,0.84,-0.02,0.55,0
2281,0.85,-0.06,0.55,0
2282,0.85,-0.04,0.54,0
2283,0.84,-0.03,0.53,0
2284,0.85,-0.03,0.54,0
2285,0.84,-0.03,0.53,0
2286,0.84,-0.03,0.54,0
2287,0.84,-0.04,0.54,0
2288,0.84,-0.04,0.54,0
2289,0.85,-0.04,0.53,0
2290,0.85,-0.04,0.53,0
2291,0.85,-0.04,0.54,0
2292,0.85,-0.04,0.55,0
2293,0.84,-0.04,0.53,0
2294,0.84,-0.04,0.53,0
2295,0.85,-0.03,0.52,0
2296,0.85,-0.03,0.55,0
2297,0.85,-0.04,0.55,0
2298,0.85,-0.04,0.53,0
2299,0.85,-0.03,0.54,0
2300,0.84,-0.03,0.54,0
2301,0.84,-0.04,0.53,0
2302,0.85,-0.03,0.53,0
2303,0.85,-0.03,0.54,0
2304,0.84,-0.04,0.54,0
2305,0.85,-0.04,0.54,0
2306,0.84,-0.04,0.53,0
2307,0.84,-0.04,0.53,0
2308,0.85,-0.04,0.53,0
2309,0.85,-0.04,0.53,0
2310,0.85,-0.05,0.54,0
2311,0.85,-0.04,0.54,0
2312,0.85,-0.04,0.54,0
2313,0.85,-0.04,0.53,0
2314,0.85,-0.04,0.53,0
2315,0.85,-0.03,0.53,0
2316,0.84,-0.03,0.53,0
2317,0.84,-0.04,0.53,0
2318,0.85,-0.04,0.54,0
2319,0.85,-0.04,0.54,0
2320,0.85,-0.05,0.54,0
2321,0.85,-0.05,0.54,0
2322,0.85,-0.05,0.54,0
2323,0.85,-0.04,0.53,0
2324,0.85,-0.05,0.53,0
2325,0.83,-0.05,0.53,0
2326,0.85,-0.04,0.53,0
2327,0.85,-0.04,0.54,0
2328,0.85,-0.05,0.55,0
2329,0.85,-0.04,0.54,0
2330,0.85,-0.04,0.54,0
2331,0.85,-0.04,0.53,0
2332,0.84,-0.04,0.54,0
2333,0.84,-0.04,0.54,0
2334,0.85,-0.05,0.54,0
2335,0.84,-0.04,0.54,0
2336,0.85,-0.05,0.54,0
2337,0.85,-0.04,0.53,0
2338,0.85,-0.04,0.54,0
2339,0.85,-0.04,0.54,0
2340,0.85,-0.05,0.54,0
2341,0.85,-0.04,0.54,0
2342,0.84,-0.04,0.54,0
2343,0.85,-0.04,0.53,0
2344,0.84,-0.04,0.52,0
2345,0.85,-0.04,0.54,0
2346,0.85,-0.04,0.55,0
2347,0.85,-0.05,0.54,0
2348,0.85,-0.05,0.54,0
2349,0.85,-0.04,0.54,0
2350,0.84,-0.04,0.53,0
2351,0.84,-0.04,0.52,0
2352,0.85,-0.04,0.54,0
2353,0.85,-0.05,0.55,0
2354,0.85,-0.04,0.54,0
2355,0.85,-0.04,0.54,0
2356,0.85,-0.05,0.54,0
2357,0.85,-0.04,0.54,0
2358,0.85,-0.04,0.55,0
2359,0.85,-0.05,0.54,0
2360,0.84,-0.04,0.54,0
2361,0.85,-0.04,0.53,0
2362,0.84,-0.04,0.53,0
2363,0.84,-0.05,0.54,0
2364,0.84,-0.05,0.54,0
2365,0.85,-0.05,0.55,0
2366,0.85,-0.05,0.56,0
2367,0.84,-0.04,0.55,0
2368,0.85,-0.04,0.54,0
2369,0.84,-0.05,0.54,0
2370,0.84,-0.04,0.54,0
2371,0.85,-0.04,0.54,0
2372,0.84,-0.05,0.54,0
2373,0.85,-0.05,0.54,0
2374,0.85,-0.05,0.55,0
2375,0.85,-0.05,0.56,0
2376,0.84,-0.05,0.54,0
2377,0.84,-0.05,0.54,0
2378,0.84,-0.05,0.54,0
2379,0.84,-0.05,0.54,0
2380,0.84,-0.05,0.55,0
2381,0.85,-0.05,0.55,0
2382,0.84,-0.05,0.56,0
2383,0.85,-0.05,0.55,0
2384,0.84,-0.04,0.55,0
2385,0.83,-0.05,0.54,0
2386,0.83,-0.05,0.54,0
2387,0.84,-0.05,0.55,0
2388,0.83,-0.04,0.56,0
2389,0.84,-0.06,0.54,0
2390,0.82,-0.04,0.57,0
2391,0.85,-0.05,0.55,0
2392,0.84,-0.05,0.57,0
2393,0.82,-0.06,0.57,0
2394,0.82,-0.05,0.56,0
2395,0.83,-0.06,0.56,0
2396,0.83,-0.04,0.57,0
2397,0.81,-0.06,0.58,0
2398,0.83,-0.04,0.52,0
2399,0.82,-0.04,0.61,0
2400,0.85,-0.07,0.6,0
2401,0.8,-0.07,0.57,0
2402,0.82,-0.01,0.55,0
2403,0.83,-0.03,0.54,0
2404,0.84,-0.06,0.52,0
2405,0.85,-0.05,0.54,0
2406,0.85,-0.06,0.56,0
2407,0.85,-0.06,0.58,0
2408,0.85,-0.05,0.57,0
2409,0.85,-0.05,0.55,0
2410,0.84,-0.05,0.55,0
2411,0.84,-0.04,0.55,0
2412,0.82,-0.04,0.54,0
2413,0.83,-0.04,0.55,0
2414,0.83,-0.04,0.55,0
2415,0.83,-0.04,0.56,0
2416,0.84,-0.05,0.55,0
2417,0.84,-0.06,0.56,0
2418,0.84,-0.05,0.57,0
2419,0.84,-0.06,0.57,0
2420,0.84,-0.06,0.56,0
2421,0.84,-0.06,0.56,0
2422,0.84,-0.05,0.56,0
2423,0.83,-0.05,0.56,0
2424,0.83,-0.05,0.55,0
2425,0.83,-0.05,0.56,1
2426,0.83,-0.05,0.56,1
2427,0.84,-0.05,0.57,1
2428,0.84,-0.06,0.57,1
2429,0.84,-0.06,0.57,1
2430,0.83,-0.05,0.56,1
2431,0.84,-0.05,0.57,1
2432,0.83,-0.05,0.57,1
2433,0.82,-0.06,0.57,1
2434,0.83,-0.05,0.57,1
2435,0.83,-0.05,0.56,1
2436,0.82,-0.05,0.55,1
2437,0.83,-0.05,0.57,1
2438,0.83,-0.05,0.58,1
2439,0.82,-0.06,0.56,1
2440,0.83,-0.06,0.55,1
2441,0.84,-0.05,0.57,1
2442,0.83,-0.05,0.59,1
2443,0.83,-0.02,0.64,1
2444,0.89,-0.08,0.72,1
2445,0.99,-0.09,1.04,1
2446,1.01,-0.13,1.53,1
2447,1.29,-0.29,1.61,1
2448,1.59,-0.39,1.51,1
2449,1.65,-0.39,1.17,1
2450,1.37,-0.26,0.69,1
2451,0.86,-0.06,0.2,1
2452,0.22,0.14,-0.17,1
2453,-0.38,0.28,-0.32,1
2454,-0.69,0.23,-0.43,1
2455,-0.64,0.44,-0.37,1
2456,-0.41,0.72,-0.19,1
2457,-0.04,0.91,-0.01,1
2458,0.33,0.93,0.27,1
2459,1.16,0.88,0.76,1
2460,1.61,0.7,1.28,1
2461,2.35,0.2,1.48,1
2462,1.97,0.1,1.5,1
2463,1.73,0.15,1.91,1
2464,1.4,0.44,2.14,1
2465,1.44,0.46,1.94,1
2466,1.58,0.48,1.55,1
2467,1.46,0.39,1.19,1
2468,1.14,0.28,0.65,1
2469,0.67,0.17,0.13,1
2470,0.04,0.03,-0.19,1
2471,0.08,-0.14,-0.41,1
2472,-0.33,-0.21,-0.52,1
2473,-0.46,-0.35,-0.77,1
2474,-0.35,-0.35,-0.96,1
2475,-0.21,-0.14,-1.0,1
2476,0.29,0.12,-0.91,1
2477,0.75,0.35,-0.61,1
2478,1.08,0.25,0.2,1
2479,1.59,0.54,1.2,1
2480,1.68,0.44,1.58,1
2481,1.66,0.42,1.74,1
2482,1.5,0.43,1.5,1
2483,1.29,0.34,1.38,1
2484,0.9,0.25,1.2,1
2485,0.85,0.12,0.78,1
2486,0.82,0.02,0.55,1
2487,0.86,-0.04,0.42,1
2488,0.81,-0.04,0.42,1
2489,0.9,-0.05,0.49,1
2490,0.86,-0.05,0.51,1
2491,0.85,-0.04,0.5,1
2492,0.89,-0.05,0.47,1
2493,0.87,-0.03,0.49,1
2494,0.88,-0.06,0.48,1
2495,0.86,-0.04,0.48,1
2496,0.88,-0.05,0.48,1
2497,0.88,-0.03,0.48,1
2498,0.89,-0.03,0.48,1
2499,0.88,-0.05,0.48,1
2500,0.88,-0.02,0.48,1
2501,0.85,-0.08,0.48,1
2502,0.84,-0.01,0.52,1
2503,0.86,-0.05,0.52,1
2504,0.84,-0.03,0.49,1
2505,0.85,-0.03,0.53,1
2506,0.86,-0.06,0.57,1
2507,0.85,-0.01,0.58,1
2508,0.87,-0.09,0.47,1
2509,0.85,-0.05,0.42,1
2510,0.82,0.0,0.57,1
2511,0.86,-0.04,0.54,1
2512,0.78,-0.05,0.52,1
2513,0.8,-0.04,0.55,1
2514,0.87,0.0,0.5,1
2515,0.84,-0.01,0.42,1
2516,0.78,0.09,0.44,1
2517,0.99,-0.11,0.5,1
2518,0.83,0.0,0.5,1
2519,0.89,-0.01,0.55,1
2520,0.89,0.01,0.57,1
2521,0.88,0.02,0.58,1
2522,0.86,0.01,0.54,1
2523,0.83,0.01,0.51,1
2524,0.85,0.0,0.48,1
2525,0.79,0.01,0.48,0
2526,0.84,0.0,0.48,0
2527,0.84,-0.01,0.49,0
2528,0.85,-0.02,0.5,0
2529,0.87,-0.01,0.51,0
2530,0.89,-0.02,0.51,0
2531,0.89,-0.01,0.51,0
2532,0.87,-0.01,0.49,0
2533,0.85,0.0,0.49,0
2534,0.85,0.0,0.49,0
2535,0.85,0.0,0.49,0
2536,0.86,0.01,0.49,0
2537,0.87,0.0,0.49,0
2538,0.86,0.01,0.49,0
2539,0.86,0.01,0.49,0
2540,0.85,0.01,0.49,0
2541,0.86,0.01,0.5,0
2542,0.86,0.0,0.49,0
2543,0.87,0.0,0.49,0
2544,0.88,0.0,0.49,0
2545,0.87,0.0,0.5,0
2546,0.87,0.01,0.49,0
2547,0.86,0.01,0.49,0
2548,0.86,0.02,0.48,0
2549,0.86,0.01,0.48,0
2550,0.86,0.02,0.48,0
2551,0.87,0.0,0.48,0
2552,0.87,0.0,0.48,0
2553,0.87,-0.01,0.48,0
2554,0.89,-0.01,0.48,0
2555,0.86,0.0,0.48,0
2556,0.87,0.0,0.48,0
2557,0.87,0.02,0.47,0
2558,0.86,0.01,0.46,0
2559,0.86,0.02,0.47,0
2560,0.87,0.01,0.48,0
2561,0.87,0.0,0.49,0
2562,0.87,0.01,0.5,0
2563,0.89,0.01,0.5,0
2564,0.87,0.0,0.48,0
2565,0.87,0.0,0.48,0
2566,0.86,0.0,0.48,0
2567,0.85,0.0,0.47,0
2568,0.86,0.02,0.47,0
2569,0.85,0.01,0.48,0
2570,0.89,-0.02,0.49,0
2571,0.86,0.0,0.49,0
2572,0.87,0.01,0.48,0
2573,0.87,0.0,0.48,0
2574,0.87,0.0,0.48,0
2575,0.89,0.0,0.49,0
2576,0.84,0.07,0.48,0
2577,0.88,0.01,0.5,0
2578,0.85,-0.1,0.47,0
2579,0.88,0.07,0.47,0
2580,0.86,-0.04,0.47,0
2581,0.88,0.0,0.48,0
2582,0.86,0.01,0.48,0
2583,0.87,0.0,0.49,0
2584,0.86,0.0,0.48,0
2585,0.86,0.0,0.48,0
2586,0.86,0.0,0.48,0
2587,0.86,0.0,0.48,0
2588,0.87,0.0,0.48,0
2589,0.86,0.0,0.48,0
2590,0.87,0.0,0.48,0
2591,0.87,0.0,0.48,0
2592,0.87,0.0,0.48,0
2593,0.87,-0.01,0.48,0
2594,0.87,-0.01,0.48,0
2595,0.86,0.0,0.48,0
2596,0.86,0.0,0.48,0
2597,0.86,0.0,0.47,0
2598,0.86,-0.01,0.47,0
2599,0.86,-0.01,0.48,0
2600,0.87,0.0,0.48,0
2601,0.86,0.0,0.48,0
2602,0.87,0.0,0.48,0
2603,0.87,-0.01,0.48,0
2604,0.86,0.0,0.48,0
2605,0.87,-0.01,0.48,0
2606,0.87,-0.01,0.48,0
2607,0.87,0.0,0.48,0
2608,0.87,-0.01,0.48,0
2609,0.87,-0.01,0.48,0
2610,0.86,-0.01,0.48,0
2611,0.87,-0.01,0.48,0
2612,0.87,-0.01,0.48,0
2613,0.86,-0.01,0.48,0
2614,0.87,0.0,0.49,0
2615,0.86,-0.01,0.48,0
2616,0.86,-0.01,0.48,0
2617,0.86,0.0,0.49,0
2618,0.86,-0.01,0.5,0
2619,0.86,-0.01,0.5,0
2620,0.85,-0.01,0.48,0
2621,0.85,0.0,0.52,0
2622,0.84,0.01,0.53,0
2623,0.84,-0.01,0.5,0
2624,0.86,0.0,0.52,0
2625,0.85,-0.01,0.57,0
2626,0.87,0.01,0.58,0
2627,0.82,-0.02,0.57,0
2628,0.88,0.0,0.5,0
2629,0.86,-0.01,0.46,0
2630,0.84,0.0,0.49,0
2631,0.85,-0.01,0.5,0
2632,0.86,-0.01,0.49,0
2633,0.86,-0.01,0.48,0
2634,0.86,-0.01,0.5,0
2635,0.85,-0.02,0.51,0
2636,0.86,-0.02,0.51,0
2637,0.85,-0.02,0.51,0
2638,0.86,-0.01,0.51,0
2639,0.85,-0.01,0.52,0
2640,0.85,-0.01,0.51,0
2641,0.85,-0.01,0.52,0
2642,0.85,-0.01,0.51,0
2643,0.86,-0.01,0.52,0
2644,0.86,-0.01,0.52,0
2645,0.85,-0.02,0.51,0
2646,0.85,-0.01,0.51,0
2647,0.85,-0.01,0.51,0
2648,0.86,-0.01,0.52,0
2649,0.85,-0.01,0.52,0
2650,0.85,-0.01,0.51,1
2651,0.85,-0.01,0.5,1
2652,0.85,-0.01,0.51,1
2653,0.85,-0.01,0.52,1
2654,0.85,-0.02,0.52,1
2655,0.86,-0.02,0.52,1
2656,0.86,-0.02,0.52,1
2657,0.85,-0.01,0.5,1
2658,0.85,-0.02,0.51,1
2659,0.85,-0.02,0.52,1
2660,0.86,-0.02,0.51,1
2661,0.85,-0.01,0.51,1
2662,0.85,-0.02,0.51,1
2663,0.85,-0.02,0.5,1
2664,0.86,-0.01,0.5,1
2665,0.85,-0.02,0.51,1
2666,0.86,-0.02,0.51,1
2667,0.86,-0.02,0.52,1
2668,0.86,-0.02,0.57,1
2669,0.88,-0.03,0.59,1
2670,0.91,0.05,0.79,1
2671,0.99,0.03,1.07,1
2672,1.25,-0.19,1.33,1
2673,1.58,-0.38,1.51,1
2674,1.68,-0.41,1.36,1
2675,1.69,-0.44,0.99,1
2676,1.48,-0.32,0.51,1
2677,0.92,-0.1,0.07,1
2678,0.23,0.03,-0.21,1
2679,-0.21,0.17,-0.29,1
2680,-0.71,0.3,-0.36,1
2681,-0.75,0.39,-0.33,1
2682,-0.6,0.6,-0.21,1
2683,-0.28,0.85,-0.02,1
2684,0.16,0.94,0.16,1
2685,0.94,0.89,0.7,1
2686,1.3,0.68,1.08,1
2687,1.8,0.32,1.29,1
2688,1.87,0.15,1.45,1
2689,1.82,0.19,1.98,1
2690,1.48,0.53,2.41,1
2691,1.57,0.62,2.35,1
2692,1.6,0.69,1.87,1
2693,1.71,0.57,1.39,1
2694,1.37,0.53,0.88,1
2695,0.88,0.52,0.23,1
2696,0.42,0.4,-0.24,1
2697,-0.26,0.13,-0.47,1
2698,-0.34,-0.2,-0.72,1
2699,-0.51,-0.41,-0.85,1
2700,-0.35,-0.43,-0.93,1
2701,-0.23,-0.33,-0.91,1
2702,0.04,-0.08,-0.78,1
2703,0.41,-0.04,-0.57,1
2704,0.65,0.2,-0.09,1
2705,1.04,0.18,0.54,1
2706,1.17,0.43,1.45,1
2707,1.39,0.24,1.59,1
2708,1.32,0.37,1.52,1
2709,1.26,0.3,1.5,1
2710,1.0,0.27,1.47,1
2711,0.86,0.16,1.2,1
2712,0.83,0.06,0.93,1
2713,0.8,-0.01,0.71,1
2714,0.85,-0.01,0.55,1
2715,0.84,-0.02,0.55,1
2716,0.79,-0.01,0.57,1
2717,0.84,-0.03,0.56,1
2718,0.83,-0.02,0.56,1
2719,0.84,-0.02,0.56,1
2720,0.85,-0.04,0.55,1
2721,0.84,-0.04,0.56,1
2722,0.86,-0.05,0.57,1
2723,0.83,-0.05,0.54,1
2724,0.85,-0.05,0.53,1
2725,0.85,-0.04,0.53,1
2726,0.85,-0.04,0.54,1
2727,0.86,-0.04,0.54,1
2728,0.84,-0.03,0.56,1
2729,0.81,-0.05,0.52,1
2730,0.84,-0.03,0.53,1
2731,0.75,-0.04,0.57,1
2732,0.84,-0.02,0.5,1
2733,0.78,-0.01,0.61,1
2734,0.85,-0.03,0.61,1
2735,0.87,-0.04,0.65,1
2736,0.84,-0.04,0.58,1
2737,0.84,-0.08,0.48,1
2738,0.82,0.01,0.5,1
2739,0.77,-0.02,0.57,1
2740,0.84,0.0,0.56,1
2741,0.82,0.0,0.62,1
2742,0.87,0.04,0.65,1
2743,0.83,-0.06,0.57,1
2744,0.82,-0.04,0.5,1
2745,0.86,-0.02,0.51,1
2746,0.82,-0.03,0.55,1
2747,0.81,-0.01,0.53,1
2748,0.83,-0.01,0.52,1
2749,0.85,-0.01,0.55,1
2750,0.85,-0.02,0.55,0
2751,0.85,-0.02,0.56,0
2752,0.84,-0.03,0.55,0
2753,0.83,-0.02,0.54,0
2754,0.85,-0.03,0.55,0
2755,0.85,-0.03,0.55,0
2756,0.85,-0.03,0.54,0
2757,0.83,-0.02,0.53,0
2758,0.83,-0.03,0.53,0
2759,0.84,-0.02,0.53,0
2760,0.85,-0.03,0.54,0
2761,0.85,-0.03,0.55,0
2762,0.85,-0.03,0.55,0
2763,0.85,-0.03,0.53,0
2764,0.84,-0.02,0.52,0
2765,0.84,-0.02,0.53,0
2766,0.84,-0.02,0.53,0
2767,0.85,-0.03,0.54,0
2768,0.85,-0.03,0.55,0
2769,0.85,-0.03,0.54,0
2770,0.85,-0.03,0.54,0
2771,0.85,-0.03,0.53,0
2772,0.85,-0.02,0.53,0
2773,0.84,-0.02,0.53,0
2774,0.86,-0.03,0.5,0
2775,0.85,-0.02,0.52,0
2776,0.86,-0.04,0.53,0
2777,0.85,-0.02,0.53,0
2778,0.85,-0.03,0.52,0
2779,0.85,-0.03,0.51,0
2780,0.85,-0.03,0.52,0
2781,0.85,-0.03,0.51,0
2782,0.85,-0.03,0.52,0
2783,0.86,-0.03,0.53,0
2784,0.86,-0.02,0.53,0
2785,0.85,-0.03,0.52,0
2786,0.86,-0.03,0.52,0
2787,0.85,-0.02,0.52,0
2788,0.85,-0.03,0.52,0
2789,0.86,-0.03,0.51,0
2790,0.85,-0.03,0.5,0
2791,0.85,-0.03,0.5,0
2792,0.84,-0.05,0.52,0
2793,0.85,-0.04,0.54,0
2794,0.88,-0.04,0.5,0
2795,0.86,-0.04,0.5,0
2796,0.85,-0.04,0.51,0
2797,0.85,-0.04,0.53,0
2798,0.85,-0.04,0.53,0
2799,0.85,-0.04,0.53,0
2800,0.85,-0.04,0.53,0
2801,0.85,-0.03,0.53,0
2802,0.86,-0.04,0.52,0
2803,0.85,-0.04,0.53,0
2804,0.85,-0.04,0.52,0
2805,0.85,-0.04,0.51,0
2806,0.85,-0.04,0.51,0
2807,0.85,-0.04,0.52,0
2808,0.86,-0.05,0.53,0
2809,0.85,-0.05,0.54,0
2810,0.85,-0.05,0.53,0
2811,0.85,-0.04,0.52,0
2812,0.85,-0.05,0.51,0
2813,0.85,-0.05,0.51,0
2814,0.85,-0.04,0.52,0
2815,0.85,-0.05,0.52,0
2816,0.85,-0.04,0.52,0
2817,0.85,-0.04,0.53,0
2818,0.85,-0.04,0.53,0
2819,0.85,-0.03,0.52,0
2820,0.85,-0.03,0.51,0
2821,0.85,-0.04,0.52,0
2822,0.85,-0.04,0.52,0
2823,0.85,-0.04,0.52,0
2824,0.85,-0.03,0.52,0
2825,0.85,-0.04,0.51,0
2826,0.85,-0.03,0.52,0
2827,0.85,-0.04,0.51,0
2828,0.85,-0.05,0.5,0
2829,0.86,-0.04,0.51,0
2830,0.86,-0.04,0.51,0
2831,0.86,-0.04,0.52,0
2832,0.85,-0.03,0.51,0
2833,0.85,-0.04,0.51,0
2834,0.85,-0.04,0.52,0
2835,0.85,-0.04,0.51,0
2836,0.86,-0.05,0.51,0
2837,0.86,-0.05,0.51,0
2838,0.86,-0.05,0.51,0
2839,0.85,-0.05,0.51,0
2840,0.85,-0.04,0.51,0
2841,0.81,0.0,0.46,0
2842,0.83,0.01,0.44,0
2843,0.85,0.0,0.43,0
2844,0.88,-0.03,0.43,0
2845,0.94,-0.06,0.45,0
2846,0.95,-0.03,0.45,0
2847,0.85,-0.01,0.48,0
2848,0.84,0.0,0.5,0
2849,0.84,-0.01,0.58,0
2850,0.78,0.0,0.58,0
2851,0.88,0.0,0.58,0
2852,0.88,-0.05,0.58,0
2853,0.83,-0.02,0.62,0
2854,0.73,0.0,0.66,0
2855,0.72,0.03,0.74,0
2856,0.61,0.04,0.77,0
2857,0.61,0.07,0.78,0
2858,0.66,0.08,0.8,0
2859,0.61,0.12,0.76,0
2860,0.65,0.15,0.76,0
2861,0.66,0.18,0.76,0
2862,0.66,0.25,0.81,0
2863,0.59,0.24,0.77,0
2864,0.51,0.25,0.79,0
2865,0.51,0.27,0.76,0
2866,0.47,0.31,0.75,0
2867,0.64,0.4,0.86,0
2868,0.51,0.46,0.74,0
2869,0.37,0.55,0.76,0
2870,0.43,0.45,0.78,0
2871,0.46,0.41,0.78,0
2872,0.46,0.47,0.75,0
2873,0.45,0.44,0.77,0
2874,0.45,0.47,0.75,0
2875,0.44,0.43,0.79,0
2876,0.45,0.44,0.78,0
2877,0.43,0.44,0.8,0
2878,0.43,0.43,0.79,0
2879,0.43,0.44,0.79,0
2880,0.42,0.42,0.81,0
2881,0.43,0.43,0.8,0
